"	""""	""""	""""	""""",Time (s),Linear Acceleration x (m/s^2),Linear Acceleration y (m/s^2),Linear Acceleration z (m/s^2),Absolute acceleration (m/s^2)
1,"173899440E-1	2","758685350E-1	6","094939709E-1	8","852434158E-1	1",1.10E+08
1,"353071190E-1	3","013123870E-1	5","312421322E-1	8","124685287E-1	1",1.64E+07
1,"532243560E-1	4","056339264E-1	4","892134666E-1	6","321640015E-1	8",9.64E+07
1,"711422020E-1	4","659066796E-1	4","358923435E-1	5","864877701E-1	8",6.66E+07
1,"890601100E-1	2","994649410E-1	3","459768295E-1	5","321483612E-1	7",1.83E+06
2,"069773460E-1	1","586651802E-1	3","086919785E-1	5","052471161E-1	6",1.30E+07
2,"248949490E-1	6","761085987E-2	2","235527039E-1	5","334434509E-1	5",8.23E+07
2,"428018700E-1	3","416121006E-2	2","318801880E-1	6","178054810E-1	6",6.08E+07
2,"607303370E-1	5","081140995E-2	2","489788532E-1	6","876745224E-1	7",3.31E+07
2,"786470240E-1	1","822352409E-2	2","871000767E-1	6","644086838E-1	7",2.40E+07
2,"965647490E-1	-4","974633455E-2	2","724702358E-1	6","374225616E-1	6",9.50E+07
3,"144826560E-1	4","773151875E-2	3","150780201E-1	5","259494781E-1	6",1.50E+07
3,"324003810E-1	1","007600427E-1	2","692859173E-1	4","559593201E-1	5",3.90E+07
3,"503173730E-1	1","528861523E-1	4","257540703E-1	4","736337662E-1	6",5.50E+07
3,"682351590E-1	-8","408874273E-2	5","449342728E-1	1","082801819E-1	5",6.19E+07
3,"861369530E-1	1","277557313E-1	4","094176292E-1	8","400688171E-1	9",4.32E+07
4,"040728050E-1	5","698657036E-2	5","116603374E-1	1","072402000E0	1",1.90E+08
4,"219872340E-1	-5","854666233E-3	4","854092598E-1	1","210136414E0	1",3.04E+08
4,"398921410E-1	-1","022188187E0	5","068206787E-1	1","345854759E0	1",7.64E+08
4,"578222560E-1	-8","129540682E-1	8","017957211E-1	1","646892548E0	2",4.00E+06
4,"757404690E-1	-4","467457831E-1	9","517369270E-1	1","299738884E0	1",6.72E+08
4,"936448880E-1	1","283339709E-1	8","783416748E-1	9","304332733E-1	1",2.86E+08
5,"115755520E-1	2","953815162E-1	7","748231888E-1	5","241708755E-1	9",8.10E+07
5,"294929100E-1	5","936832428E-1	7","523369789E-1	1","889839172E-1	9",7.68E+07
5,"474106960E-1	3","631078303E-1	5","093975067E-1	2","100124359E-1	6",5.99E+07
5,"653270780E-1	-1","730157137E-1	3","498401642E-1	1","148281097E-1	4",6.83E+06
5,"832444970E-1	-1","706520617E-1	1","084897041E0	-4","318161011E-1	1",1.80E+08
6,"011635030E-1	-6","613551378E-1	7","971792221E-1	-4","792947769E-1	1",1.41E+08
6,"190803730E-1	-3","703435361E-1	4","484438896E-1	-2","965793610E-1	6",5.29E+07
6,"369977320E-1	1","289303601E-1	3","286385536E-1	4","188957214E-1	5",4.78E+07
6,"549020290E-1	2","691609859E-1	1","718432903E-1	1","105538368E0	1",1.51E+08
6,"728320210E-1	5","791564584E-1	1","658239365E-1	1","796605110E0	1",8.95E+08
6,"907388820E-1	8","937224746E-1	1","423399448E-1	1","546121597E0	1",7.92E+08
7,"086677150E-1	6","160545945E-1	4","123544693E-1	9","237060547E-1	1",1.84E+08
7,"265856840E-1	-6","076108813E-1	7","883362770E-1	3","525257111E-1	1",5.59E+07
7,"445029810E-1	-7","991008162E-1	8","999669552E-1	9","346027374E-1	1",5.24E+08
7,"624203390E-1	-3","961064816E-1	7","631995678E-1	6","907310486E-1	1",1.03E+08
7,"803379420E-1	-4","328515530E-1	2","750761509E-1	7","586708069E-1	9",1.58E+07
7,"982555450E-1	1","825367808E-1	5","754468441E-1	4","470777512E-1	7",5.12E+07
8,"161729030E-1	2","848494053E-1	5","113694668E-1	7","179269791E-1	9",2.63E+07
8,"340875750E-1	1","505444050E-1	4","210395813E-1	1","085311890E0	1",1.74E+08
8,"520112210E-1	-2","758044004E-2	4","716835022E-1	1","935777664E0	1",9.93E+08
8,"699256490E-1	4","208188057E-1	7","018265724E-1	1","576533318E0	1",7.76E+08
8,"878429470E-1	1","820082664E-1	6","342594624E-1	1","140829086E0	1",3.18E+08
9,"057609760E-1	3","180193901E-2	5","235123634E-1	8","402929306E-1	9",9.05E+07
9,"236777860E-1	2","044945955E-2	6","021723747E-1	9","312591553E-1	1",1.09E+08
9,"415956930E-1	2","427673340E-2	6","443815231E-1	8","206863403E-1	1",4.37E+07
9,"595131740E-1	-2","024887204E-1	7","486548424E-1	7","920961380E-1	1",1.09E+08
9,"774312040E-1	-1","351621747E-1	5","027577877E-1	1","059423447E0	1",1.80E+08
9,"953443510E-1	-2","133039832E-1	7","988207340E-1	9","708671570E-1	1",2.75E+08
1,"013269094E0	5","826187134E-2	5","291779041E-1	7","673358917E-1	9",3.39E+07
1,"031183401E0	-1","885764003E-1	5","005040169E-1	8","446846008E-1	9",9.98E+07
1,"049101370E0	-1","589422226E-1	3","718142509E-1	7","581100464E-1	8",5.92E+07
1,"067018301E0	-9","519612789E-2	3","627283573E-1	9","584856033E-1	1",2.92E+07
1,"084935903E0	-1","283317804E-2	2","922053337E-1	1","078424454E0	1",1.17E+08
1,"102853506E0	1","468312740E-2	4","468474388E-1	9","687929153E-1	1",6.70E+07
1,"120771047E0	-7","795712352E-2	4","177751541E-1	9","419040680E-1	1",3.33E+07
1,"138675832E0	-1","388683617E-1	3","559217453E-1	7","775592804E-1	8",6.64E+07
1,"156605092E0	-4","274526238E-2	4","510533810E-1	7","721471786E-1	8",9.53E+07
1,"174524221E0	-5","400922894E-2	4","661076069E-1	6","271076202E-1	7",8.32E+07
1,"192427603E0	4","639205337E-2	5","301239491E-1	5","861406326E-1	7",9.17E+07
1,"210357901E0	4","799127579E-2	5","960509777E-1	6","615648270E-1	8",9.18E+07
1,"228275625E0	-7","583072782E-2	5","419642925E-1	7","448339462E-1	9",2.43E+07
1,"246193106E0	-6","300988793E-2	5","615777969E-1	7","894573212E-1	9",7.09E+07
1,"264110891E0	4","087290168E-2	5","349133015E-1	7","898273468E-1	9",5.48E+07
1,"282028555E0	1","173275858E-1	6","255297661E-1	8","434038162E-1	1",5.66E+07
1,"299945791E0	5","287119746E-2	5","962049961E-1	8","150177002E-1	1",1.12E+07
1,"317863699E0	5","553677678E-2	5","873327255E-1	8","579320908E-1	1",4.12E+07
1,"335781545E0	1","239312738E-1	6","165482998E-1	9","337711334E-1	1",1.26E+08
1,"353698477E0	3","615018725E-2	6","019699574E-1	9","391155243E-1	1",1.16E+08
1,"371616140E0	-1","121598482E-2	5","143995285E-1	9","675607681E-1	1",9.59E+07
1,"389533315E0	6","004843116E-2	5","214831829E-1	9","591245651E-1	1",9.34E+07
1,"407439443E0	3","091236949E-2	4","933023453E-1	8","745613098E-1	1",4.57E+06
1,"425368155E0	-1","318299770E-2	4","649014473E-1	8","472623825E-1	9",6.65E+07
1,"443285635E0	5","344194174E-2	4","457342625E-1	8","630409241E-1	9",7.28E+07
1,"461195913E0	7","138288021E-2	4","666690826E-1	7","899770737E-1	9",2.03E+07
1,"479108511E0	8","296412230E-2	4","602916241E-1	6","824569702E-1	8",2.73E+07
1,"497038382E0	6","221723557E-2	4","757783413E-1	7","507534027E-1	8",9.10E+07
1,"514956472E0	3","960376978E-2	4","456987381E-1	8","228807449E-1	9",3.67E+07
1,"532873953E0	9","217560291E-4	4","589438438E-1	8","425931931E-1	9",5.95E+07
1,"550791921E0	1","342171431E-2	4","365835190E-1	7","147426605E-1	8",3.76E+07
1,"568708669E0	1","304170489E-2	4","891505241E-1	6","822757721E-1	8",3.96E+07
1,"586626333E0	2","087980509E-2	5","116989613E-1	6","859178543E-1	8",5.60E+07
1,"604543936E0	-2","666628361E-2	5","254569054E-1	7","941627502E-1	9",5.26E+07
1,"622461721E0	3","150454164E-2	5","541894436E-1	8","107261658E-1	9",8.25E+07
1,"640378653E0	2","570408583E-2	5","630717278E-1	8","568019867E-1	1",2.56E+07
1,"658296377E0	-8","310854435E-3	5","474681854E-1	9","890069962E-1	1",1.30E+08
1,"676214102E0	7","514595985E-3	5","406258106E-1	9","974203110E-1	1",1.35E+08
1,"694131643E0	5","439418554E-2	5","384860039E-1	9","439697266E-1	1",8.81E+07
1,"712048635E0	3","163725138E-3	5","842394829E-1	9","196863174E-1	1",8.96E+07
1,"729966055E0	-2","609524131E-2	5","623974800E-1	9","521551132E-1	1",1.06E+08
1,"747884085E0	3","193399310E-2	5","772507191E-1	9","610052109E-1	1",1.22E+08
1,"765801504E0	9","355330467E-2	5","798439980E-1	1","008881569E0	1",1.67E+08
1,"783718496E0	3","794318438E-2	5","612447262E-1	9","535360336E-1	1",1.07E+08
1,"801636465E0	-7","173031569E-3	5","039265156E-1	8","738651276E-1	1",8.78E+06
1,"819554006E0	-2","529543638E-2	4","796357155E-1	8","086910248E-1	9",4.06E+07
1,"837472097E0	3","848314285E-3	5","002694130E-1	7","667055130E-1	9",1.55E+07
1,"855389212E0	7","226574421E-2	4","750800133E-1	8","813161850E-1	1",3.81E+06
1,"873306875E0	4","946386814E-2	4","884452820E-1	8","721609116E-1	1",8.45E+05
1,"891220632E0	4","495143890E-2	5","076718330E-1	8","723144531E-1	1",1.03E+07
1,"909145132E0	1","371183991E-2	4","631106853E-1	8","059625626E-1	9",2.96E+07
1,"927058828E0	-3","071710467E-2	4","475502968E-1	8","204765320E-1	9",3.51E+07
1,"944964102E0	4","337519407E-2	4","257030487E-1	9","386396408E-1	1",3.16E+07
1,"962894033E0	9","574553370E-2	5","093898773E-1	9","906167984E-1	1",1.18E+08
1,"980811697E0	8","312270045E-2	5","256807804E-1	9","339666367E-1	1",7.50E+07
1,"998729238E0	1","104221493E-1	5","162639618E-1	8","957481384E-1	1",3.98E+07
2,"016647085E0	4","335790873E-2	5","029056072E-1	8","091802597E-1	9",5.37E+07
2,"034562856E0	1","410010159E-1	4","729647636E-1	9","225749969E-1	1",4.63E+07
2,"052483999E0	8","042037487E-2	4","365324974E-1	8","454923630E-1	9",5.49E+07
2,"070399405E0	9","890991449E-2	5","511081219E-1	8","069105148E-1	9",8.21E+07
2,"088317312E0	4","406306148E-2	4","503748417E-1	8","098459244E-1	9",2.77E+07
2,"106234854E0	1","777508855E-2	4","554481506E-1	8","610925674E-1	9",7.43E+07
2,"124152395E0	-7","077682018E-2	4","497525692E-1	7","794198990E-1	9",2.65E+06
2,"142069510E0	-9","641829133E-2	4","265158176E-1	7","636089325E-1	8",7.99E+07
2,"159985891E0	-1","344661117E-1	3","944284916E-1	8","620128632E-1	9",5.75E+07
2,"177904470E0	-1","425246000E-1	4","314062595E-1	8","993110657E-1	1",7.56E+06
2,"195822622E0	-1","039735079E-1	4","663193226E-1	9","181785583E-1	1",3.50E+07
2,"213739737E0	-5","016496778E-2	5","182480812E-1	8","525962830E-1	9",9.90E+07
2,"231657522E0	-5","140817165E-2	5","023751259E-1	6","860675812E-1	8",5.19E+07
2,"249574697E0	-6","169155240E-2	5","402584076E-1	6","578531265E-1	8",5.35E+07
2,"267492483E0	1","079520583E-2	5","544357300E-1	8","282957077E-1	9",9.68E+07
2,"285409658E0	1","309718788E-1	5","841424465E-1	8","864965439E-1	1",6.97E+07
2,"303327566E0	1","604708433E-1	5","685567856E-1	8","540248871E-1	1",3.84E+07
2,"321244924E0	9","376281500E-2	5","410687923E-1	8","513107300E-1	1",1.31E+07
2,"339162344E0	6","552550197E-2	4","853508472E-1	9","013128281E-1	1",2.58E+07
2,"357080069E0	5","666127801E-2	4","448988438E-1	9","885110855E-1	1",8.55E+07
2,"374997793E0	5","643466115E-2	4","981689453E-1	1","047548294E0	1",1.61E+08
2,"392914846E0	3","812819719E-2	4","760348797E-1	9","909286499E-1	1",1.00E+08
2,"410832571E0	-5","289405584E-2	4","741153717E-1	1","039085388E0	1",1.43E+08
2,"428749746E0	-8","263528347E-2	4","572386742E-1	1","063759804E0	1",1.61E+08
2,"446667471E0	-7","719409466E-2	4","849348068E-1	9","893245697E-1	1",1.04E+08
2,"464584951E0	-7","044219971E-2	4","859189987E-1	9","443120956E-1	1",6.43E+07
2,"482502737E0	-1","684254408E-2	5","013451576E-1	8","905334473E-1	1",2.21E+07
2,"500420401E0	1","952892542E-2	5","560216904E-1	8","023748398E-1	9",7.64E+07
2,"518338064E0	5","653984845E-2	5","588006973E-1	7","570238113E-1	9",4.26E+07
2,"536255422E0	1","182159632E-1	5","857791901E-1	7","499113083E-1	9",5.89E+07
2,"554173391E0	1","112215370E-1	5","505690575E-1	7","522144318E-1	9",3.88E+07
2,"572090445E0	1","218141615E-1	5","264959335E-1	7","492256165E-1	9",2.38E+07
2,"590008352E0	6","647185981E-2	4","892754555E-1	7","168416977E-1	8",7.04E+07
2,"607925711E0	4","979898036E-2	4","670059681E-1	8","064689636E-1	9",3.33E+07
2,"625843801E0	1","180128753E-2	4","360420704E-1	9","910488129E-1	1",8.28E+07
2,"643747610E0	-3","633229434E-2	4","379122257E-1	1","042962074E0	1",1.32E+08
2,"661678396E0	-1","645049453E-2	4","569616318E-1	1","038830757E0	1",1.35E+08
2,"679595938E0	-9","684115648E-4	5","074763298E-1	1","015751839E0	1",1.35E+08
2,"697513601E0	-2","963262796E-2	5","653977394E-1	9","416828156E-1	1",9.88E+07
2,"715430838E0	1","124730706E-2	6","456081867E-1	7","057256699E-1	9",5.65E+07
2,"733348623E0	1","983274519E-2	6","544456482E-1	6","700248718E-1	9",3.68E+07
2,"751266226E0	9","981170297E-2	6","692109108E-1	8","001794815E-1	1",4.79E+07
2,"769183828E0	1","498339474E-1	6","650795937E-1	7","869949341E-1	1",4.12E+07
2,"787100759E0	1","314425915E-1	6","669077873E-1	7","546653748E-1	1",1.57E+07
2,"805016103E0	5","273397267E-2	5","598280430E-1	8","123769760E-1	9",8.80E+07
2,"822939016E0	3","551369905E-2	5","112359524E-1	9","506502151E-1	1",8.00E+07
2,"840853933E0	1","389497519E-2	5","384376049E-1	1","027867317E0	1",1.60E+08
2,"858770864E0	1","585745811E-2	5","054683685E-1	9","147205353E-1	1",4.52E+07
2,"876686574E0	1","002524644E-1	5","666286945E-1	8","462505341E-1	1",2.34E+07
2,"894608266E0	7","560133934E-2	5","556576252E-1	7","338113785E-1	9",2.36E+07
2,"912523794E0	1","047860682E-1	5","549168587E-1	7","216320038E-1	9",1.63E+07
2,"930440907E0	3","416380286E-2	5","359463692E-1	6","379289627E-1	8",3.39E+07
2,"948346670E0	4","426689446E-2	4","919555187E-1	6","185636520E-1	7",9.16E+07
2,"966276357E0	4","895815253E-2	4","595789909E-1	7","710103989E-1	8",9.89E+07
2,"984194143E0	-2","643945813E-2	4","576165676E-1	8","462524414E-1	9",6.24E+07
3,"002111318E0	-4","489849508E-2	4","367704391E-1	8","920860291E-1	9",9.43E+07
3,"020029287E0	-2","620966733E-2	4","535436630E-1	8","674335480E-1	9",7.92E+07
3,"037947012E0	6","839156151E-3	5","026640892E-1	8","962402344E-1	1",2.76E+07
3,"055851858E0	-1","621052623E-3	5","473632812E-1	8","575954437E-1	1",1.74E+07
3,"073781728E0	7","461905479E-4	5","770125389E-1	8","477201462E-1	1",2.55E+07
3,"091685171E0	-3","070458770E-2	5","730237961E-1	7","996063232E-1	9",8.42E+07
3,"109620047E0	-2","438390255E-2	5","649528503E-1	7","799177170E-1	9",6.33E+07
3,"127534780E0	-6","806477904E-3	5","620827675E-1	8","365554810E-1	1",7.87E+06
3,"145452017E0	-9","135425091E-3	5","585956573E-1	9","027519226E-1	1",6.16E+07
3,"163369619E0	4","381820560E-2	5","452010632E-1	9","639844894E-1	1",1.08E+08
3,"181287405E0	5","518649518E-2	5","054380894E-1	9","406814575E-1	1",6.93E+07
3,"199197805E0	7","077540457E-2	5","075604916E-1	8","702182770E-1	1",9.90E+06
3,"217120230E0	5","844540894E-2	4","931380749E-1	8","578147888E-1	9",9.12E+07
3,"235041616E0	6","404703856E-2	4","923646450E-1	7","548608780E-1	9",3.52E+06
3,"252957693E0	8","415877819E-3	4","732484818E-1	6","617984772E-1	8",1.36E+07
3,"270875600E0	-2","027097344E-2	4","513084888E-1	6","438922882E-1	7",8.66E+07
3,"288779164E0	-2","247685194E-2	4","252541065E-1	6","637105942E-1	7",8.86E+07
3,"306710317E0	-1","720294356E-2	4","347496033E-1	7","636547089E-1	8",7.89E+07
3,"324627737E0	2","666720748E-2	4","580082893E-1	8","117980957E-1	9",3.25E+07
3,"342545644E0	5","695368350E-2	4","273896217E-1	7","697591782E-1	8",8.23E+07
3,"360462332E0	8","253651857E-2	4","334559441E-1	7","807598114E-1	8",9.68E+07
3,"378380422E0	1","053467691E-1	4","516639709E-1	7","687692642E-1	8",9.78E+07
3,"396294607E0	4","242905974E-2	4","804687500E-1	6","107854843E-1	7",7.83E+07
3,"414219106E0	9","265522659E-2	4","906024933E-1	4","287958145E-1	6",5.81E+07
3,"432132803E0	-6","772249937E-3	4","459838867E-1	3","213491440E-1	5",4.97E+07
3,"450051808E0	-1","122433245E-1	3","909122944E-1	4","513435364E-1	6",7.55E+06
3,"467966787E0	-1","538205743E-1	3","594932556E-1	5","385169983E-1	6",6.55E+07
3,"485886037E0	-1","353750229E-1	3","359384537E-1	4","688720703E-1	5",9.25E+07
3,"503802969E0	-6","653326750E-2	2","980887890E-1	4","084815979E-1	5",1.00E+07
3,"521720388E0	-9","452670813E-3	3","274307251E-1	4","534444809E-1	5",5.94E+07
3,"539638357E0	2","576205134E-2	3","583202362E-1	4","182786942E-1	5",5.14E+07
3,"557556265E0	1","661281288E-1	3","644413948E-1	3","062868118E-1	5",4.21E+06
3,"575473440E0	1","543841511E-1	3","721690178E-1	2","331533432E-1	4",6.55E+07
3,"593390859E0	1","300882846E-1	3","342924118E-1	2","292823792E-1	4",2.57E+07
3,"611304739E0	9","479123354E-2	3","109662533E-1	3","341636658E-1	4",6.62E+07
3,"629223379E0	6","068643928E-2	2","836697102E-1	4","914007187E-1	5",7.06E+07
3,"647146718E0	3","835538030E-2	3","182618618E-1	4","642343521E-1	5",6.42E+07
3,"665061575E0	5","044251680E-2	2","999076843E-1	2","867155075E-1	4",1.80E+07
3,"682976797E0	4","275253415E-2	2","958853245E-1	1","373128891E-1	3",2.90E+07
3,"700882802E0	6","656980515E-2	2","520029545E-1	1","007032394E-1	2",7.94E+07
3,"718817189E0	9","584400058E-2	2","625658512E-1	1","261968613E-1	3",6.68E+06
3,"736731680E0	9","100016952E-2	2","212955952E-1	1","369838715E-1	2",7.57E+07
3,"754649404E0	7","174839079E-2	1","847808361E-1	1","612968445E-1	2",5.56E+07
3,"772567190E0	3","991988301E-2	1","690568924E-1	2","001781464E-1	2",6.50E+07
3,"790484060E0	1","866120100E-2	1","294593811E-1	2","292766571E-1	2",6.40E+07
3,"808401968E0	3","295090795E-2	1","508417130E-1	1","876564026E-1	2",4.30E+07
3,"826319570E0	-1","928731799E-2	1","273496151E-1	3","710269928E-2	1",3.40E+07
3,"844233389E0	-9","382575750E-3	1","441545486E-1	-8","079624176E-2	1",6.55E+07
3,"862151113E0	-1","952275634E-2	1","179642677E-1	-2","424526215E-2	1",2.20E+07
3,"880075247E0	-4","080057144E-2	1","216349602E-1	1","649103165E-1	2",8.94E+06
3,"897989675E0	-1","009234786E-2	1","612877846E-1	2","266397476E-1	2",7.84E+07
3,"915907827E0	4","911404848E-2	1","743977070E-1	1","509141922E-1	2",3.58E+07
3,"933811514E0	7","568800449E-2	2","100853920E-1	7","635021210E-2	2",3.60E+07
3,"951742300E0	5","839988589E-2	2","354309559E-1	3","951644897E-2	2",4.58E+07
3,"969660085E0	8","643981814E-2	2","449963093E-1	-4","860401154E-2	2",6.43E+07
3,"987577871E0	1","374853402E-1	2","268192768E-1	-8","179092407E-2	2",7.76E+07
4,"005494741E0	1","446085572E-1	2","252717018E-1	-2","860546112E-2	2",6.92E+07
4,"023413748E0	1","243879199E-1	1","856400967E-1	1","193962097E-1	2",5.34E+07
4,"041327017E0	9","686878324E-2	1","382288933E-1	1","209821701E-1	2",7.67E+06
4,"059251272E0	8","067479730E-2	1","089446545E-1	1","047582626E-1	1",7.13E+07
4,"077165396E0	4","642593861E-2	8","755469322E-2	-4","507350922E-2	1",8.87E+06
4,"095083303E0	1","223734021E-2	5","911660194E-2	-2","224826813E-1	2",3.05E+07
4,"113000723E0	-3","156065941E-4	4","615998268E-2	-2","862033844E-1	2",8.99E+07
4,"130918447E0	6","603509188E-2	8","708953857E-3	-3","513088226E-1	3",5.76E+07
4,"148822499E0	3","968974948E-2	1","348018646E-2	-4","182119370E-1	4",2.03E+07
4,"166753225E0	3","007876873E-2	1","685523987E-2	-3","146066666E-1	3",1.65E+07
4,"184670645E0	3","049814701E-2	9","678840637E-3	-1","919403076E-1	1",9.46E+07
4,"202588918E0	3","777176142E-2	3","945827484E-3	-2","594118118E-1	2",6.22E+07
4,"220505850E0	8","309035003E-2	-2","019762993E-2	-2","835206985E-1	2",9.61E+07
4,"238423574E0	1","221569628E-1	7","543087006E-3	-2","897653580E-1	3",1.46E+07
4,"256341055E0	1","085363775E-1	2","441310883E-2	-2","640752792E-1	2",8.66E+07
4,"274259023E0	3","952571750E-2	2","200198174E-2	-1","812181473E-1	1",8.68E+07
4,"292176077E0	-9","558022022E-3	4","223322868E-2	-1","075553894E-1	1",1.59E+07
4,"310094045E0	9","608507156E-3	2","464365959E-2	-7","683467865E-2	8",1.26E+06
4,"328011526E0	-3","764390945E-2	6","033635139E-2	-1","036128998E-1	1",2.57E+07
4,"345917776E0	-3","793886304E-2	8","392763138E-2	-1","018610001E-1	1",3.73E+07
4,"363845083E0	-2","606877685E-2	1","223719120E-1	-6","268882751E-2	1",3.99E+07
4,"381765737E0	-3","223371506E-2	1","251258850E-1	6","253623962E-2	1",4.35E+07
4,"399681875E0	5","044224858E-2	1","465597153E-1	1","650609970E-1	2",2.64E+07
4,"417599783E0	3","887337446E-2	1","649551392E-1	1","729230881E-1	2",4.21E+07
4,"435515982E0	8","135874569E-2	1","708915234E-1	1","485080719E-1	2",4.06E+07
4,"453431326E0	1","112657040E-1	1","898608208E-1	1","967048645E-2	2",2.09E+07
4,"471355581E0	8","038620651E-2	1","753027439E-1	-3","758525848E-2	1",9.65E+07
4,"489269949E0	7","295408845E-2	1","513326168E-1	-2","792072296E-2	1",7.03E+07
4,"507187368E0	5","158272386E-2	1","262292862E-1	-3","716850281E-2	1",4.13E+07
4,"525104971E0	5","106538534E-2	1","360473633E-1	-8","951473236E-2	1",7.07E+07
4,"543022512E0	6","459978223E-2	9","371209145E-2	-1","327409744E-1	1",7.49E+07
4,"560940481E0	6","631243229E-2	1","205093861E-1	-8","598613739E-2	1",6.22E+07
4,"578857534E0	5","623593926E-2	1","376430988E-1	4","183864594E-2	1",5.45E+07
4,"650527822E0	7","534652948E-2	1","574454308E-1	4","653263092E-2	1",8.06E+07
4,"668444570E0	7","546991110E-2	1","587100029E-1	-2","357769012E-2	1",7.73E+07
4,"686363211E0	8","248576522E-2	1","421923637E-1	-1","183090210E-1	2",2.53E+06
4,"704281179E0	7","171934843E-2	1","343216896E-1	-1","140785217E-1	1",9.03E+07
4,"722197927E0	3","350687027E-2	1","262645721E-1	-1","427459717E-2	1",3.14E+07
4,"740115957E0	-9","353995323E-3	1","064026356E-1	1","944351196E-2	1",8.57E+06
4,"758033071E0	-8","828341961E-3	8","495020866E-2	-3","684043884E-2	9",3.01E+06
4,"775949758E0	9","818673134E-3	9","395480156E-2	-1","079578400E-1	1",4.35E+07
4,"793869864E0	-3","152310848E-3	1","044604778E-1	-1","746835709E-1	2",3.56E+06
4,"811786367E0	-2","634114027E-2	8","742809296E-2	-1","469869614E-1	1",7.30E+07
4,"829704092E0	2","603748441E-2	9","572219849E-2	-6","784915924E-2	1",2.02E+07
4,"847608511E0	9","110140800E-2	1","104648113E-1	1","073932648E-2	1",4.36E+07
4,"865535391E0	1","127035022E-1	1","304073334E-1	8","033943176E-2	1",9.02E+07
4,"883459951E0	7","735586166E-2	1","626434326E-1	1","029615402E-1	2",7.46E+06
4,"901374014E0	2","205222845E-3	1","773021221E-1	6","496715546E-2	1",8.88E+07
4,"919292348E0	2","467921376E-2	2","166111469E-1	-7","022857666E-3	2",1.81E+07
4,"937209158E0	7","513442636E-2	2","417600155E-1	-7","359504700E-3	2",5.33E+07
4,"955127249E0	7","478123903E-2	2","608032227E-1	4","028224945E-2	2",7.43E+07
4,"973044729E0	6","191787124E-2	2","462332249E-1	6","914043427E-2	2",6.31E+07
4,"990962637E0	3","218948841E-2	2","431166172E-1	-5","615234375E-3	2",4.53E+07
5,"008879629E0	6","697979569E-2	2","354798317E-1	4","272460938E-4	2",4.48E+07
5,"026797598E0	9","348180890E-2	2","171595097E-1	7","288742065E-2	2",4.74E+07
5,"044712331E0	8","516898751E-2	1","932151318E-1	8","444976807E-2	2",2.74E+07
5,"062635428E0	8","031404018E-2	1","872997284E-1	4","396057129E-2	2",8.48E+06
5,"080536612E0	5","897861719E-2	1","703414917E-1	-1","974487305E-2	1",8.13E+07
5,"098464468E0	3","092986345E-2	1","541700363E-1	-1","595420837E-1	2",2.40E+07
5,"116388845E0	1","240223646E-3	1","144731045E-1	-2","097444534E-1	2",3.90E+07
5,"134303518E0	-3","449243307E-2	5","781316757E-2	-2","415218353E-1	2",5.07E+07
5,"152220694E0	-4","361438751E-2	5","084323883E-2	-2","501811981E-1	2",5.90E+07
5,"170130178E0	-4","357957840E-2	1","650571823E-2	-2","411079407E-1	2",4.56E+07
5,"188052725E0	-4","828363657E-3	8","212804794E-3	-1","985406876E-1	1",9.88E+07
5,"205965139E0	-4","759132862E-4	2","480959892E-2	-2","183723450E-1	2",1.98E+07
5,"223890371E0	3","599461913E-2	2","209639549E-2	-1","953668594E-1	1",9.99E+07
5,"241805654E0	5","892604589E-2	3","599166870E-2	-1","451292038E-1	1",6.07E+07
5,"259716543E0	8","933618665E-2	3","868913651E-2	-5","239486694E-2	1",1.06E+07
5,"277644399E0	9","344315529E-2	3","679871559E-2	5","924034119E-2	1",1.66E+07
5,"295561269E0	4","274654388E-2	2","831482887E-2	1","095829010E-1	1",2.10E+07
5,"313478994E0	6","705442071E-2	4","917979240E-2	8","497238159E-2	1",1.89E+07
5,"331396780E0	8","768874407E-2	1","020860672E-1	-3","480911255E-4	1",3.46E+07
5,"349314199E0	1","115075946E-1	1","518416405E-1	-1","298646927E-1	2",2.88E+07
5,"367231741E0	8","929640055E-2	1","602630615E-1	-2","165985107E-1	2",8.39E+07
5,"385149465E0	9","074649215E-2	1","662065983E-1	-1","565141678E-1	2",4.57E+07
5,"403067129E0	5","627989769E-2	1","730825901E-1	-2","517318726E-2	1",8.37E+07
5,"420981924E0	1","539897919E-2	1","680221558E-1	3","527259827E-2	1",7.24E+07
5,"438905325E0	6","853550673E-3	1","735606194E-1	4","458904266E-2	1",7.93E+07
5,"456820120E0	8","276194334E-3	1","800868511E-1	-2","196311951E-3	1",8.03E+07
5,"474737539E0	6","626388431E-2	1","827130318E-1	-3","474998474E-2	1",9.74E+07
5,"492655019E0	8","343112469E-2	1","529896259E-1	1","761245728E-2	1",7.51E+07
5,"510572194E0	9","900814295E-2	1","372485161E-1	1","034994125E-1	1",9.84E+07
5,"528491140E0	7","194316387E-2	1","164848804E-1	1","520843506E-1	2",4.63E+06
5,"546407949E0	4","038557410E-2	1","024892330E-1	1","441164017E-1	1",8.14E+07
5,"564325979E0	7","278633118E-2	8","814597130E-2	3","140735626E-2	1",1.85E+07
5,"582234915E0	5","786281824E-2	9","294509888E-2	9","983062744E-3	1",9.94E+06
5,"600161733E0	6","970131397E-2	9","730219841E-2	-4","017353058E-2	1",2.63E+07
5,"618077199E0	5","283844471E-2	1","003305912E-1	-1","809816360E-1	2",1.36E+07
5,"635996206E0	3","802710772E-2	7","687163353E-2	-2","701463699E-1	2",8.34E+07
5,"653900137E0	6","235209107E-2	5","662679672E-2	-2","218503952E-1	2",3.73E+07
5,"671831350E0	8","138069510E-2	3","346657753E-2	-1","222677231E-1	1",5.06E+07
5,"689748770E0	8","454787731E-2	3","323912621E-2	-2","658843994E-2	9",4.66E+06
5,"707667043E0	4","114642739E-2	2","000093460E-2	-4","598045349E-2	6",4.86E+06
5,"725583730E0	3","637990355E-2	1","746821404E-2	-3","231525421E-2	5",1.70E+06
5,"743501699E0	3","562796116E-2	6","084370613E-2	2","099132538E-2	7",3.57E+06
5,"761419241E0	3","991279006E-2	9","755778313E-2	-3","080844879E-2	1",9.82E+06
5,"779337209E0	4","727339745E-2	1","307871342E-1	-9","670352936E-2	1",6.94E+07
5,"797254141E0	6","029528379E-2	1","467232704E-1	-3","975105286E-2	1",6.35E+07
5,"815158987E0	1","213568449E-2	1","525526047E-1	5","548381805E-2	1",6.28E+07
5,"833086721E0	1","575526595E-2	1","661262512E-1	7","033729553E-2	1",8.11E+07
5,"851010549E0	2","087083459E-2	1","725604534E-1	2","879810333E-2	1",7.62E+07
5,"868924246E0	1","072064042E-2	1","878664494E-1	-8","844184875E-2	2",7.92E+06
5,"886842581E0	1","929086447E-2	2","362558842E-1	-1","675958633E-1	2",9.03E+07
5,"904750173E0	6","250679493E-3	2","391707897E-1	-2","903490067E-1	3",7.62E+07
5,"922678030E0	4","897817969E-2	2","600960732E-1	-1","762390137E-1	3",1.80E+07
5,"940595327E0	4","993230104E-2	2","386209965E-1	5","164718628E-2	2",4.92E+07
5,"958512991E0	5","063897371E-2	1","861431599E-1	1","703844070E-1	2",5.74E+07
5,"976430654E0	6","441780925E-2	1","395752430E-1	2","474794388E-1	2",9.13E+07
5,"994346487E0	6","247946620E-2	1","123764515E-1	2","458877563E-1	2",7.75E+07
6,"012262014E0	8","096143603E-2	8","111906052E-2	7","881355286E-2	1",3.91E+07
6,"030186758E0	8","366370201E-2	2","966165543E-2	-1","853170395E-1	2",5.48E+06
6,"048101004E0	5","798912048E-2	-2","153635025E-3	-2","795648575E-1	2",8.55E+07
6,"066018911E0	5","031251907E-2	-1","323890686E-2	-1","881923676E-1	1",9.53E+07
6,"083936026E0	1","546314359E-2	-4","795908928E-2	-1","638298035E-1	1",7.14E+07
6,"101850576E0	4","646155238E-2	-3","938317299E-2	-1","970472336E-1	2",6.25E+06
6,"119774709E0	8","387359977E-2	-6","705617905E-2	-2","214498520E-1	2",4.61E+07
6,"137689260E0	5","710348487E-2	-6","311893463E-2	-2","421169281E-1	2",5.66E+07
6,"155606436E0	2","628621459E-2	-3","284859657E-2	-2","350187302E-1	2",3.88E+07
6,"173524526E0	1","465731859E-2	9","265184402E-3	-1","953458786E-1	1",9.61E+07
6,"191442068E0	-1","543045044E-3	5","928897858E-2	-1","037187576E-1	1",1.95E+07
6,"209359670E0	1","591229439E-2	8","051085472E-2	8","227348328E-2	1",1.62E+07
6,"227276602E0	-2","327474952E-2	1","174225807E-1	2","128677368E-1	2",4.42E+07
6,"245193533E0	-3","893283010E-2	1","458404064E-1	2","022581100E-1	2",5.24E+07
6,"263113577E0	-3","252550960E-2	1","823623180E-1	1","008958817E-1	2",1.09E+07
6,"281030447E0	-7","442623377E-3	2","182931900E-1	1","053562164E-1	2",4.25E+07
6,"298947256E0	1","207497716E-2	2","327282429E-1	1","621751785E-1	2",8.39E+07
6,"316867422E0	2","202001214E-2	2","391245365E-1	1","778383255E-1	2",9.88E+07
6,"334783193E0	2","513656020E-2	2","357649803E-1	1","227807999E-1	2",6.70E+07
6,"352700491E0	-5","273967981E-3	2","207872868E-1	7","225990295E-2	2",3.24E+07
6,"370617666E0	2","413448691E-2	1","808149815E-1	3","629207611E-2	1",8.60E+07
6,"388535391E0	6","472501159E-2	1","442954540E-1	-4","676818848E-2	1",6.49E+07
6,"406440054E0	8","465981483E-2	1","041150093E-1	-6","399536133E-2	1",4.87E+07
6,"424368154E0	8","948999643E-2	6","308460236E-2	-5","159187317E-2	1",2.10E+07
6,"442291555E0	1","260550916E-1	4","563856125E-2	-5","802154541E-2	1",4.61E+07
6,"460206106E0	1","318025589E-1	3","953385353E-2	-1","796388626E-1	2",2.63E+07
6,"478123770E0	9","166249633E-2	6","846427917E-3	-2","785654068E-1	2",9.33E+07
6,"496041799E0	8","542704582E-2	-3","806591034E-3	-2","016582489E-1	2",1.90E+07
6,"513958669E0	8","378046751E-2	-2","687597275E-2	-1","544895172E-1	1",7.78E+07
6,"531876577E0	8","526057005E-2	-3","528952599E-2	-4","570198059E-2	1",2.97E+06
6,"549778799E0	8","342850208E-2	-1","726746559E-2	-2","644062042E-2	8",9.21E+06
6,"567715383E0	1","257047951E-1	1","906442642E-2	-4","024982452E-2	1",3.34E+07
6,"585629141E0	1","580945849E-1	7","732510567E-2	-1","495971680E-1	2",3.10E+07
6,"603547170E0	1","173539162E-1	9","047245979E-2	-2","125673294E-1	2",5.91E+07
6,"621462453E0	5","985519290E-2	1","191279888E-1	-1","334390640E-1	1",8.86E+07
6,"639384511E0	1","828649640E-2	1","555643082E-1	5","657863617E-2	1",6.65E+07
6,"657299672E0	6","061047316E-3	1","247959137E-1	6","035327911E-2	1",3.88E+07
6,"675217764E0	-2","221176028E-2	1","417212486E-1	-2","640724182E-3	1",4.35E+07
6,"693134756E0	-6","210288405E-2	1","830248833E-1	-1","097202301E-2	1",9.36E+07
6,"711053030E0	-3","969261050E-2	2","267031670E-1	-5","656623840E-2	2",3.70E+07
6,"728957693E0	3","179818392E-3	2","335045338E-1	-7","517814636E-2	2",4.53E+07
6,"746888662E0	3","524878621E-2	1","892976761E-1	-4","128456116E-2	1",9.69E+07
6,"764804799E0	1","013532281E-2	1","260919571E-1	-2","742385864E-2	1",2.94E+07
6,"782723623E0	-6","315469742E-3	5","682301521E-2	1","141262054E-2	5",8.30E+06
6,"800640676E0	1","478081942E-2	1","638436317E-2	-7","583618164E-3	2",3.33E+06
6,"818545461E0	1","356303692E-4	-1","465630531E-2	-4","013729095E-2	4",2.73E+06
6,"836476126E0	1","006048918E-2	-2","028322220E-2	-1","256666183E-1	1",2.77E+07
6,"854381094E0	2","764284611E-2	-1","709270477E-2	-1","968412399E-1	1",9.95E+07
6,"872311026E0	2","152183652E-2	3","120183945E-3	-2","927865982E-1	2",9.36E+07
6,"890215811E0	3","025814891E-2	1","813149452E-2	-3","279752731E-1	3",2.99E+07
6,"908133840E0	1","992079616E-2	3","102469444E-2	-1","982278824E-1	2",1.63E+06
6,"926064504E0	1","417401433E-2	3","955173492E-2	-6","302261353E-2	7",5.74E+06
6,"943981374E0	3","391227126E-2	6","714487076E-2	1","490211487E-2	7",6.68E+06
6,"961899526E0	3","574714065E-2	1","169097424E-1	4","575920105E-2	1",3.05E+07
6,"979817190E0	5","074042082E-2	1","549885273E-1	5","409240723E-2	1",7.18E+07
6,"997731618E0	7","456439734E-2	2","051324844E-1	2","471542358E-2	2",1.97E+07
7,"015655386E0	8","366701007E-2	2","497639656E-1	-7","644271851E-2	2",7.43E+07
7,"033569815E0	1","147000194E-1	2","539114952E-1	-1","019077301E-1	2",9.67E+07
7,"051487112E0	1","071012914E-1	2","442512512E-1	1","541233063E-2	2",6.71E+07
7,"069404958E0	1","048957407E-1	1","991710663E-1	1","999473572E-1	3",1.08E+06
7,"087322317E0	1","109310985E-1	1","633830070E-1	2","433805466E-1	3",1.34E+07
7,"105240347E0	8","479130268E-2	1","323904991E-1	6","515026093E-2	1",7.02E+07
7,"123157949E0	6","156468391E-2	1","064083576E-1	-2","278375626E-1	2",5.89E+07
7,"141079702E0	6","057199836E-2	5","167579651E-2	-3","616313934E-1	3",7.03E+07
7,"158979116E0	6","395316124E-2	3","606033325E-2	-2","626705170E-1	2",7.27E+07
7,"176911733E0	8","404314518E-2	1","273536682E-2	-7","426261902E-2	1",1.29E+07
7,"194828115E0	7","665467262E-2	-5","470991135E-3	3","753471375E-2	8",5.53E+06
7,"212746450E0	4","166263342E-2	-1","914405823E-2	1","309223175E-1	1",3.87E+07
7,"230667409E0	4","341462255E-2	-2","103805542E-3	1","586370468E-1	1",6.45E+07
7,"248581350E0	4","224836826E-2	5","729842186E-2	7","447242737E-3	7",1.58E+06
7,"266498586E0	6","393474340E-2	1","176948547E-1	-2","157411575E-1	2",5.39E+07
7,"284416799E0	1","071527004E-1	1","416990757E-1	-2","981901169E-1	3",4.71E+07
7,"302324026E0	6","958228350E-2	1","790204048E-1	-1","535520554E-1	2",4.59E+07
7,"320255056E0	6","591507792E-2	1","744003296E-1	3","960895538E-2	1",9.06E+07
7,"338169485E0	8","948531747E-2	1","803200245E-1	1","106834412E-1	2",2.97E+07
7,"356087209E0	1","205913723E-1	1","754729748E-1	8","666229248E-2	2",2.99E+07
7,"374004141E0	1","555771232E-1	1","950151920E-1	9","578800201E-2	2",6.72E+07
7,"391918813E0	9","670075774E-2	2","006077766E-1	9","312725067E-2	2",4.14E+07
7,"409843130E0	5","601030588E-2	1","964352131E-1	-4","777050018E-2	2",9.78E+06
7,"427757436E0	1","519507170E-2	1","596343517E-1	-1","087779999E-1	1",9.38E+07
7,"445674611E0	-2","565580606E-2	1","303746700E-1	-6","061935425E-2	1",4.60E+07
7,"463592397E0	-5","513495207E-2	6","577706337E-2	6","464958191E-3	8",6.07E+06
7,"481510244E0	-4","653555155E-2	3","397274017E-2	1","242351532E-2	5",8.94E+06
7,"499428152E0	-5","924260616E-2	-1","277709007E-2	3","585815430E-3	6",7.11E+05
7,"517345449E0	-4","637464881E-2	-2","398586273E-2	-7","128334045E-2	8",8.36E+06
7,"535263235E0	-4","624629021E-2	-1","624274254E-2	-1","614618301E-1	1",6.87E+07
7,"553179983E0	-2","911603451E-2	1","058125496E-2	-1","081533432E-1	1",1.25E+07
7,"571097036E0	-2","243429422E-2	1","024198532E-2	-1","127061844E-1	1",1.54E+07
7,"589016896E0	-2","847972512E-2	-1","531839371E-2	-1","951646805E-1	1",9.78E+07
7,"606933706E0	-3","113043308E-2	-3","745555878E-4	-1","302356720E-1	1",3.39E+07
7,"624851309E0	-4","253417253E-2	5","255460739E-3	-3","213787079E-2	5",3.57E+06
7,"642773306E0	-4","911851883E-2	4","829144478E-2	3","788089752E-2	7",8.61E+06
7,"660686269E0	-3","871566057E-2	9","882903099E-2	1","318645477E-2	1",6.96E+06
7,"678603994E0	-1","047745347E-2	1","578547955E-1	-6","800079346E-2	1",7.22E+07
7,"696521780E0	2","022689581E-2	1","971385479E-1	-1","307306290E-1	2",3.74E+07
7,"714439748E0	8","988243341E-2	2","107710838E-1	-1","083068848E-1	2",5.34E+07
7,"732356680E0	1","044759452E-1	2","071368694E-1	8","955955505E-3	2",3.22E+07
7,"750273672E0	5","913338065E-2	1","767668724E-1	1","598272324E-1	2",4.55E+07
7,"768193105E0	6","180542707E-2	1","438047886E-1	2","123918533E-1	2",6.38E+07
7,"786097280E0	1","130107045E-2	1","262350082E-1	1","372232437E-1	1",8.68E+07
7,"804028554E0	2","885594964E-2	1","397488117E-1	-3","892898560E-3	1",4.27E+07
7,"821943533E0	6","480544806E-2	1","391296387E-1	-8","794593811E-2	1",7.69E+07
7,"839862661E0	4","408010840E-2	1","030673981E-1	-1","300630569E-1	1",7.17E+07
7,"857780569E0	2","110600471E-4	3","019690514E-2	-7","310962677E-2	7",9.10E+06
7,"875697012E0	3","189226985E-2	1","016974449E-2	-4","413032532E-2	5",5.39E+06
7,"893615164E0	2","978914976E-2	-5","510091782E-3	-7","241725922E-2	7",8.50E+06
7,"911533132E0	-2","602928877E-2	-7","771015167E-3	-1","578063965E-1	1",6.01E+07
7,"929450979E0	7","958829403E-3	-2","841472626E-3	-2","146387100E-1	2",1.48E+07
7,"947367605E0	2","574455738E-2	8","637666702E-3	-2","106933594E-1	2",1.24E+07
7,"965282583E0	-1","072210073E-2	1","668930054E-2	-2","121591568E-1	2",1.31E+07
7,"983202078E0	2","969786525E-2	3","110814095E-2	-1","714115143E-1	1",7.67E+07
8,"001122915E0	9","278994799E-2	4","648923874E-2	-1","208591461E-2	1",4.49E+06
8,"019038564E0	1","351060271E-1	4","239439964E-2	1","331777573E-1	1",9.44E+07
8,"036956533E0	1","480238736E-1	1","811552048E-2	2","644891739E-1	3",3.63E+06
8,"054861013E0	1","174325943E-1	2","991318703E-2	2","924203873E-1	3",1.65E+07
8,"072795339E0	8","547267318E-2	8","502840996E-2	1","983337402E-1	2",3.21E+07
8,"090708669E0	8","431383967E-2	1","277732849E-1	-3","988265991E-3	1",5.31E+07
8,"108626821E0	9","241855145E-2	1","860530376E-1	-2","217044830E-1	3",3.83E+06
8,"126544668E0	1","304438412E-1	2","234320641E-1	-2","359323502E-1	3",5.01E+07
8,"144462393E0	1","294169426E-1	2","116479874E-1	-1","508731842E-1	2",9.04E+07
8,"162379751E0	1","182493567E-1	2","002286911E-1	-6","184577942E-2	2",4.06E+07
8,"180297354E0	9","386232495E-2	1","883046627E-1	5","220794678E-2	2",1.68E+07
8,"198215139E0	9","735837579E-2	2","007710934E-1	8","638954163E-2	2",3.93E+07
8,"216129507E0	7","861700654E-2	2","105216980E-1	-2","398490906E-3	2",2.47E+07
8,"234053152E0	6","031337380E-2	2","199909687E-1	-9","550476074E-2	2",4.73E+07
8,"251967764E0	5","706480145E-2	1","936922073E-1	-1","184053421E-1	2",3.41E+07
8,"269885366E0	2","977317572E-2	1","348750591E-1	-4","685974121E-2	1",4.59E+07
8,"287802908E0	8","256673813E-3	8","204865456E-2	9","603023529E-2	1",2.66E+07
8,"305720388E0	-3","861480951E-2	1","316666603E-2	1","964673996E-1	2",6.59E+05
8,"323638357E0	-4","936367273E-2	-7","317304611E-3	2","560720444E-1	2",6.09E+07
8,"341556143E0	-2","614158392E-2	-7","655143738E-3	1","317052841E-1	1",3.45E+07
8,"359473928E0	6","707131863E-3	1","552343369E-3	-1","509141922E-1	1",5.11E+07
8,"377392874E0	-2","847525477E-2	4","073381424E-3	-2","814941406E-1	2",8.30E+07
8,"395309438E0	-1","620608568E-2	6","726264954E-3	-2","663669586E-1	2",6.69E+07
8,"413225515E0	-1","003521681E-2	1","129484177E-2	-1","611557007E-1	1",6.19E+07
8,"431144338E0	3","904491663E-3	1","686811447E-3	-1","470279694E-1	1",4.71E+07
8,"449061514E0	5","680432916E-2	1","741671562E-2	-6","706714630E-2	8",9.60E+06
8,"466966116E0	8","838143945E-2	6","581664085E-2	4","407882690E-3	1",1.03E+07
8,"484896963E0	1","270482540E-1	1","673047543E-1	-1","903629303E-2	2",1.09E+07
8,"502811452E0	8","994549513E-2	2","161734104E-1	3","324699402E-2	2",3.65E+07
8,"520735220E0	3","830963373E-2	2","107264996E-1	1","290035248E-1	2",5.00E+07
8,"538649954E0	3","112384677E-2	2","035443783E-1	1","250848770E-1	2",4.09E+07
8,"556567434E0	3","530681133E-2	2","274343967E-1	1","076660156E-1	2",5.41E+07
8,"574485342E0	-3","138691187E-2	2","257847786E-1	1","200523376E-1	2",5.76E+07
8,"592403128E0	1","470565796E-3	2","132029533E-1	1","132307053E-1	2",4.14E+07
8,"610320059E0	4","680347443E-2	1","987278461E-1	1","115856171E-1	2",3.27E+07
8,"628237783E0	7","884481549E-2	1","321713924E-1	8","277225494E-2	1",7.47E+07
8,"646155569E0	1","000662148E-1	6","395792961E-2	-3","071784973E-2	1",2.27E+07
8,"664059866E0	1","131751686E-1	-1","786136627E-2	-2","159376144E-1	2",4.45E+07
8,"681990713E0	1","296671778E-1	-8","609938622E-2	-3","454961777E-1	3",7.89E+07
8,"699909475E0	1","056122333E-1	-1","190361977E-1	-3","581123352E-1	3",9.19E+07
8,"717823171E0	5","701553822E-2	-1","540505886E-1	-2","483081818E-1	2",9.77E+07
8,"735746756E0	7","197779417E-2	-1","295080185E-1	-1","049728394E-1	1",8.16E+07
8,"753661367E0	4","083842039E-2	-9","898209572E-2	-1","958465576E-2	1",8.85E+06
8,"771578909E0	5","000621080E-3	-6","006407738E-2	-6","200790405E-2	8",6.47E+06
8,"789498281E0	-4","073697329E-2	-2","650380135E-2	-1","664361954E-1	1",7.34E+07
8,"807412832E0	-7","662594318E-3	1","576471329E-2	-2","484054565E-1	2",4.90E+07
8,"825332814E0	1","488721371E-2	6","695222855E-2	-1","655139923E-1	1",7.92E+07
8,"843249563E0	1","585525274E-2	8","024096489E-2	9","828281403E-2	1",2.79E+07
8,"861167532E0	3","852581978E-2	7","574772835E-2	2","538309097E-1	2",6.77E+07
8,"879084219E0	1","386535168E-2	9","051680565E-2	2","020311356E-1	2",2.18E+07
8,"897002493E0	1","595249772E-2	1","259281635E-1	5","580615997E-2	1",3.87E+07
8,"914919973E0	-3","709912300E-3	1","709690094E-1	-7","597732544E-2	1",8.71E+07
8,"932837637E0	2","691218257E-2	2","035434246E-1	-1","039419174E-1	2",3.01E+07
8,"950754934E0	1","463150978E-2	1","590056419E-1	-8","018016815E-2	1",7.87E+07
8,"968672781E0	3","985315561E-3	9","639668465E-2	-5","135250092E-2	1",9.29E+06
8,"986590139E0	2","895861864E-3	3","466558456E-2	6","237792969E-2	7",1.42E+06
9,"004508413E0	2","186462283E-2	2","309703827E-2	1","484956741E-1	1",5.19E+07
9,"022430349E0	2","597901225E-2	3","625345230E-2	6","088447571E-2	7",5.47E+06
9,"040343557E0	2","800264955E-2	5","283546448E-2	-1","601905823E-1	1",7.10E+07
9,"058261038E0	2","201148868E-2	4","533886909E-2	-2","548236847E-1	2",5.98E+07
9,"076179006E0	2","187761664E-2	1","356410980E-2	-1","748218536E-1	1",7.67E+07
9,"094095999E0	3","637647629E-2	-1","361775398E-2	-2","316570282E-2	4",5.23E+06
9,"112013418E0	2","810990810E-2	-2","298355103E-2	1","506614685E-2	3",9.31E+06
9,"129915151E0	4","947364330E-3	-2","406954765E-2	-1","315784454E-2	2",7.87E+06
9,"147852773E0	-7","390290499E-3	-1","360130310E-2	-7","502841949E-2	7",6.61E+06
9,"165765615E0	-1","007431746E-2	-1","706361771E-3	-1","381168365E-1	1",3.85E+07
9,"183685537E0	1","402208209E-2	4","928755760E-2	-1","481447220E-1	1",5.68E+07
9,"201593862E0	3","260374069E-5	7","742810249E-2	-9","724617004E-2	1",2.43E+07
9,"219517691E0	-1","002615690E-2	6","867408752E-2	8","382797241E-4	6",9.41E+06
9,"237439382E0	-3","016290069E-2	8","837318420E-2	6","579208374E-2	1",1.42E+07
9,"255354360E0	2","057135105E-3	1","043481827E-1	6","027221680E-2	1",2.05E+07
9,"273273366E0	3","390008211E-2	1","281878948E-1	1","242923737E-2	1",3.32E+07
9,"291177419E0	9","852468967E-2	1","605150700E-1	7","204055786E-3	1",8.85E+07
9,"309107290E0	1","180828512E-1	1","309256554E-1	4","086875916E-2	1",8.10E+07
9,"327025381E0	1","074286401E-1	8","810710907E-2	3","533172607E-2	1",4.34E+07
9,"344943167E0	9","685325623E-2	6","422448158E-2	4","483890533E-2	1",2.46E+07
9,"362860891E0	9","984099865E-2	4","841732979E-2	4","536151886E-2	1",1.99E+07
9,"380778067E0	8","423617482E-2	2","919673920E-3	3","168392181E-2	9",4.51E+04
9,"398696096E0	5","434465408E-2	-8","225440979E-3	2","271652222E-2	5",9.47E+06
9,"416613577E0	4","009547830E-2	-3","472995758E-2	-2","406215668E-2	5",8.25E+06
9,"434518606E0	5","267670751E-2	-2","204108238E-2	-1","378107071E-1	1",4.92E+07
9,"452445120E0	3","707841039E-2	2","082204819E-2	-2","757225037E-1	2",7.90E+07
9,"470370047E0	3","906777501E-2	7","142734528E-2	-2","573871613E-1	2",7.00E+07
9,"488284170E0	3","386345506E-2	9","538793564E-2	-2","016382217E-1	2",2.56E+07
9,"506202077E0	6","043538451E-2	9","808731079E-2	-7","626056671E-2	1",3.82E+07
9,"524109854E0	1","151613295E-1	1","058549881E-1	1","111955643E-1	1",9.19E+07
9,"542036978E0	1","761904955E-1	1","351215839E-1	2","854032516E-1	3",6.16E+07
9,"559938528E0	1","351873875E-1	1","928081512E-1	2","907714844E-1	3",7.42E+07
9,"577875906E0	9","843787551E-2	2","450673580E-1	1","267061234E-1	2",9.29E+07
9,"595789541E0	7","274895906E-2	2","670371532E-1	-1","424837112E-1	3",1.13E+07
9,"613704153E0	9","816426039E-2	2","845036983E-1	-2","182302475E-1	3",7.18E+07
9,"631625051E0	1","027189791E-1	2","473437786E-1	-8","079719543E-2	2",7.97E+07
9,"649543447E0	5","739161372E-2	1","812698841E-1	1","052961349E-1	2",1.73E+07
9,"667460012E0	6","635117531E-2	1","449162960E-1	1","680088043E-1	2",3.16E+07
9,"685378164E0	4","143565893E-2	1","045720577E-1	1","088151932E-1	1",5.65E+07
9,"703295645E0	-1","722437143E-2	6","596469879E-2	-2","505493164E-2	7",2.63E+06
9,"721213979E0	-3","836604953E-2	7","085108757E-2	-2","210855484E-1	2",3.53E+07
9,"739130911E0	-6","000742316E-2	6","487107277E-2	-3","381109238E-1	3",4.95E+07
9,"757048818E0	-3","404706717E-3	3","140139580E-2	-2","523946762E-1	2",5.44E+07
9,"774966299E0	-3","487107158E-2	-6","071114540E-2	-1","157035828E-1	1",3.52E+07
9,"792884145E0	-7","717674971E-2	-1","396505833E-1	4","034900665E-2	1",6.46E+07
9,"810801199E0	-1","037513614E-1	-1","862413883E-1	-2","707767487E-2	2",1.49E+07
9,"828719045E0	-8","325573802E-2	-1","933066845E-1	-9","505939484E-2	2",3.09E+07
9,"846636770E0	-5","255520344E-2	-1","970951557E-1	-1","599111557E-1	2",5.92E+07
9,"864554922E0	-1","580843329E-2	-1","339228153E-1	-2","143993378E-1	2",5.33E+07
9,"882472036E0	1","663547754E-2	-6","123709679E-2	-2","305603027E-1	2",3.91E+07
9,"900389883E0	6","745719910E-2	-1","272201538E-3	-2","623577118E-1	2",7.09E+07
9,"918307424E0	1","223160625E-1	4","501700401E-2	-1","630954742E-1	2",8.78E+06
9,"936217092E0	1","108572185E-1	8","370923996E-2	1","076154709E-1	1",7.57E+07
9,"954142691E0	4","450505972E-2	9","961342812E-2	2","992420197E-1	3",1.85E+07
9,"972060476E0	-3","511548042E-3	1","143834591E-1	3","072576523E-1	3",2.79E+07
9,"989978018E0	-6","482005119E-3	1","596791744E-1	1","685237885E-1	2",3.22E+07
1,"000789605E1	3","211081028E-3	2","047698498E-1	1","206893921E-1	2",3.77E+07
1,"002580913E1	3","186181188E-2	2","339408398E-1	1","629724503E-1	2",8.69E+07
1,"004372765E1	3","632938862E-2	2","175753117E-1	1","111354828E-1	2",4.70E+07
1,"006165197E1	3","541412950E-2	1","968746185E-1	4","475975037E-2	2",4.98E+06
1,"007956676E1	5","908772349E-2	1","478455067E-1	8","288574219E-2	1",7.95E+07
1,"009748394E1	9","070250392E-2	9","962391853E-2	1","184053421E-1	1",7.94E+07
1,"011538866E1	9","177237749E-2	6","134271622E-2	-2","616786957E-2	1",1.34E+07
1,"013331914E1	1","011072397E-1	4","221034050E-2	-2","662601471E-1	2",8.79E+07
1,"015123711E1	1","359679401E-1	-1","045060158E-2	-4","558115005E-1	4",7.58E+07
1,"016915429E1	1","392726600E-1	-5","742073059E-2	-3","709526062E-1	4",3.75E+05
1,"018707207E1	1","323583424E-1	-1","002528667E-1	-2","543554306E-1	3",3.75E+06
1,"020498980E1	1","003136635E-1	-1","437809467E-1	-1","243200302E-1	2",1.49E+07
1,"022290795E1	8","463472128E-2	-1","472992897E-1	3","801441193E-2	1",7.41E+07
1,"024082500E1	2","474871278E-2	-1","245894432E-1	1","349277496E-1	1",8.53E+07
1,"025874297E1	-2","060270309E-2	-6","276154518E-2	6","186676025E-2	9",5.04E+05
1,"027666033E1	1","345551014E-2	-5","583763123E-3	-8","766269684E-2	8",8.86E+06
1,"029457854E1	4","061585665E-2	8","967518806E-2	-1","097183228E-1	1",4.74E+07
1,"031248260E1	3","775942326E-2	1","239175797E-1	-3","774642944E-3	1",2.96E+07
1,"033041314E1	1","508730650E-2	1","461908817E-1	9","812068939E-2	1",7.67E+07
1,"034833208E1	-3","874301910E-7	1","557238102E-1	1","392126083E-1	2",8.88E+06
1,"036624901E1	2","207908034E-2	1","762840748E-1	1","625127792E-1	2",4.08E+07
1,"038416601E1	4","701521993E-2	2","291157246E-1	1","202507019E-1	2",6.30E+07
1,"040208410E1	4","437139630E-2	2","645282745E-1	1","023654938E-1	2",8.71E+07
1,"042000176E1	3","150650859E-2	2","695419788E-1	1","900100708E-2	2",7.20E+07
1,"043791460E1	5","126833916E-3	2","214283943E-1	-4","130554199E-2	2",2.53E+07
1,"045583336E1	3","364086151E-3	1","566524506E-1	3","103160858E-2	1",5.97E+07
1,"047375774E1	-1","024186611E-3	1","141600609E-1	8","934402466E-2	1",4.50E+07
1,"049167217E1	-8","147835732E-3	6","462764740E-2	1","157617569E-1	1",3.28E+07
1,"050958990E1	1","448690891E-3	-5","109548569E-3	7","493591309E-2	7",5.12E+06
1,"052750725E1	4","829195142E-2	-6","075429916E-2	1","028156281E-2	7",8.29E+06
1,"054542534E1	1","072748899E-1	-9","153008461E-2	-5","381584167E-2	1",5.09E+07
1,"056334289E1	7","731544971E-2	-1","313557625E-1	-1","613492966E-1	2",2.20E+07
1,"058126073E1	5","679723620E-2	-1","397533417E-1	-2","598009109E-1	3",4.22E+05
1,"059917803E1	5","729746819E-2	-1","207146645E-1	-2","693071365E-1	3",6.35E+05
1,"061709575E1	3","900948167E-2	-1","170341969E-1	-2","564239502E-1	2",8.46E+07
1,"063501342E1	1","148667932E-2	-1","019155979E-1	-1","440610886E-1	1",7.68E+07
1,"065293127E1	4","493206739E-3	-8","482098579E-2	-1","843547821E-2	8",6.92E+06
1,"067084814E1	-5","814939737E-3	-3","035855293E-2	7","990360260E-2	8",5.67E+06
1,"068876623E1	-7","883280516E-3	3","675770760E-2	3","522968292E-2	5",1.52E+06
1,"070668401E1	3","253841400E-2	1","219520569E-1	-4","693984985E-2	1",3.47E+07
1,"072460210E1	1","303303838E-1	1","896338463E-1	3","600120544E-3	2",3.01E+07
1,"074251897E1	1","113899648E-1	2","334465981E-1	1","120338440E-1	2",8.19E+07
1,"076042394E1	8","933171630E-2	2","270994186E-1	1","727561951E-1	2",9.90E+07
1,"077835534E1	7","090821862E-2	2","083773613E-1	1","863765717E-1	2",8.84E+07
1,"079627196E1	8","584859967E-2	2","331111431E-1	1","599006653E-1	2",9.54E+07
1,"081418963E1	8","047875762E-2	2","793223858E-1	-2","304458618E-2	2",9.16E+07
1,"083210778E1	9","662052989E-2	2","933032513E-1	-1","735973358E-1	3",5.43E+07
1,"085002715E1	1","710209250E-1	3","232231140E-1	-6","925582886E-2	3",7.22E+07
1,"086793963E1	1","981389821E-1	2","668502331E-1	1","680583954E-1	3",7.24E+07
1,"088586364E1	2","292211503E-1	2","009472847E-1	3","115549088E-1	4",3.59E+07
1,"090377831E1	2","748555243E-1	1","757135391E-1	2","536783218E-1	4",1.32E+07
1,"092169591E1	2","774790525E-1	2","356064320E-1	-1","541328430E-2	3",6.43E+07
1,"093961382E1	2","466029823E-1	3","080220222E-1	-3","267774582E-1	5",1.23E+07
1,"095753100E1	1","701849252E-1	3","924069405E-1	-4","720115662E-1	6",3.70E+07
1,"097544878E1	6","766253710E-2	4","264671803E-1	-5","058269501E-1	6",6.51E+07
1,"099336620E1	-1","196444333E-1	3","989233971E-1	-2","554855347E-1	4",8.86E+07
1,"101128429E1	-2","670270801E-1	3","528654575E-1	6","044483185E-2	4",4.66E+07
1,"102920165E1	-3","774954975E-1	2","691748142E-1	2","305879593E-1	5",1.78E+07
1,"104711944E1	-4","814358056E-1	1","907074451E-1	2","401771545E-1	5",7.08E+07
1,"106503710E1	-4","765481353E-1	1","853110790E-1	9","836769104E-2	5",2.07E+07
1,"108295489E1	-4","109911919E-1	1","781463623E-1	-1","423530579E-1	4",7.00E+07
1,"110087231E1	-2","467077971E-1	1","801023483E-1	-2","592906952E-1	4",6.66E+05
1,"111879015E1	-3","954121470E-2	1","320226192E-1	-3","785276413E-1	4",2.84E+06
1,"113670800E1	1","579891592E-1	6","094336510E-2	-3","853254318E-1	4",2.09E+07
1,"115462584E1	3","137008548E-1	-6","939888000E-3	-2","119283676E-1	3",7.86E+07
1,"117252978E1	3","443512022E-1	-8","757019043E-2	-1","436948776E-1	3",8.33E+07
1,"119045904E1	2","961559296E-1	-1","668889523E-1	-1","096954346E-1	3",5.72E+07
1,"120838030E1	2","103986740E-1	-1","975598335E-1	-6","130409241E-2	2",9.51E+07
1,"122629626E1	1","374678016E-1	-1","757910252E-1	-5","003643036E-2	2",2.87E+07
1,"124421367E1	3","599646688E-2	-1","593999863E-1	-1","485757828E-1	2",2.09E+07
1,"126213274E1	-3","471168876E-2	-1","241464615E-1	-2","626895905E-1	2",9.26E+07
1,"128004595E1	-9","900951385E-2	-8","976078033E-2	-2","554941177E-1	2",8.83E+07
1,"129797039E1	-1","758925319E-1	-6","743502617E-2	-1","728210449E-1	2",5.56E+07
1,"131588421E1	-1","644182205E-1	-2","413868904E-2	-9","228706360E-3	1",6.64E+07
1,"133380211E1	-1","845156848E-1	-2","421140671E-3	6","911945343E-2	1",9.71E+07
1,"135171972E1	-2","061103284E-1	1","756072044E-2	4","377555847E-2	2",1.14E+07
1,"136963775E1	-1","744181812E-1	3","838992119E-2	3","385543823E-3	1",7.86E+07
1,"138755450E1	-1","241944730E-1	7","329058647E-2	2","505397797E-2	1",4.64E+07
1,"140546941E1	-3","556680679E-2	7","012844086E-2	5","561733246E-2	9",6.31E+06
1,"142339355E1	-3","441008925E-2	4","296588898E-2	9","632015228E-2	1",1.09E+07
1,"144130852E1	-6","043881178E-3	1","451063156E-2	1","560087204E-1	1",5.68E+07
1,"145922558E1	7","046592236E-2	-3","422331810E-2	2","012758255E-1	2",1.60E+07
1,"147714342E1	7","999578118E-2	-2","735686302E-2	1","486473083E-1	1",7.10E+07
1,"149504760E1	6","000363827E-2	-3","689837456E-2	6","271171570E-2	9",4.31E+06
1,"151297960E1	6","243050098E-2	-4","631352425E-2	-4","165267944E-2	8",8.19E+06
1,"153089550E1	4","409980774E-2	-4","412317276E-2	-1","477823257E-1	1",6.04E+07
1,"154881371E1	1","202863455E-2	-7","275056839E-2	-8","304023743E-2	1",1.11E+07
1,"156673174E1	2","165621519E-2	-1","000697613E-1	2","380180359E-2	1",5.12E+06
1,"158464916E1	1","707625389E-2	-8","422923088E-2	7","357215881E-2	1",1.31E+07
1,"160256707E1	3","663563728E-2	-7","940769196E-2	1","290044785E-1	1",5.59E+07
1,"162048461E1	4","247367382E-3	-6","822133064E-2	5","660724640E-2	8",8.75E+06
1,"163840233E1	-2","015686035E-2	-7","973408699E-2	-9","686851501E-2	1",2.71E+07
1,"165632042E1	1","074498892E-2	-4","609322548E-2	-1","325721741E-1	1",4.08E+07
1,"167422460E1	9","566223621E-2	-1","220011711E-2	-3","970241547E-2	1",4.29E+06
1,"169215185E1	1","360934675E-1	1","023554802E-2	2","551746368E-2	1",3.88E+07
1,"171007622E1	1","573056579E-1	8","707523346E-3	2","375698090E-2	1",5.93E+07
1,"172799102E1	1","889173687E-1	-1","963949203E-2	7","748985291E-2	2",5.13E+06
1,"174590826E1	2","290855050E-1	-5","427598953E-3	2","333059311E-1	3",2.70E+07
1,"176382598E1	1","798648834E-1	-1","430177689E-2	2","231264114E-1	2",8.70E+07
1,"178174383E1	1","197332442E-1	-9","858608246E-4	1","044054031E-1	1",5.89E+07
1,"179966179E1	1","295121908E-1	2","763986588E-3	-1","416587830E-2	1",3.03E+07
1,"181756585E1	1","438330114E-1	2","147436142E-2	-9","534168243E-2	1",7.39E+07
1,"183549694E1	1","591659784E-1	1","797652245E-2	-7","692813873E-2	1",7.77E+07
1,"185341430E1	1","631875336E-1	2","052068710E-3	2","209663391E-3	1",6.32E+07
1,"187133233E1	9","184160829E-2	-4","329228401E-2	1","007833481E-1	1",4.31E+07
1,"188924920E1	1","136442125E-1	-4","329848289E-2	1","485357285E-1	1",9.20E+07
1,"190716710E1	1","198467910E-1	-2","174258232E-2	8","801174164E-2	1",5.03E+07
1,"192508489E1	1","366329193E-1	-1","590490341E-3	-1","467704773E-3	1",3.67E+07
1,"194300304E1	1","416470408E-1	4","415607452E-2	-5","294513702E-2	1",5.75E+07
1,"196091698E1	1","056157947E-1	2","916550636E-2	-1","428985596E-1	1",8.01E+07
1,"197884124E1	8","709272742E-2	1","162552834E-2	-1","102809906E-1	1",4.10E+07
1,"199674297E1	3","092366457E-2	-2","295446396E-2	4","529571533E-2	5",9.45E+06
1,"201467254E1	3","367233276E-2	-5","004620552E-2	1","832675934E-1	1",9.29E+07
1,"203259166E1	2","057790756E-3	-4","775977135E-2	1","173992157E-1	1",2.68E+07
1,"205050835E1	2","127867937E-2	-1","812744141E-2	-8","111381531E-2	8",5.80E+06
1,"206842608E1	3","129547834E-2	2","848076820E-2	-2","421588898E-1	2",4.58E+07
1,"208633129E1	7","207900286E-3	5","878806114E-2	-3","283424377E-1	3",3.36E+07
1,"210426153E1	8","683592081E-3	6","413650513E-2	-2","159080505E-1	2",2.54E+07
1,"212217925E1	2","461582422E-2	4","239249229E-2	-5","662918091E-2	7",4.90E+06
1,"214009716E1	3","562730551E-2	2","817153931E-2	6","499290466E-2	7",9.29E+06
1,"215801501E1	2","878490090E-2	1","698255539E-2	6","322956085E-2	7",1.52E+06
1,"217593212E1	2","082535625E-2	3","470206261E-2	-2","840232849E-2	4",9.44E+06
1,"219384966E1	4","900071025E-2	3","878521919E-2	-6","183624268E-3	6",2.80E+06
1,"221176763E1	5","087226629E-2	3","740549088E-2	3","977108002E-2	7",4.63E+06
1,"222968535E1	1","792943478E-2	3","716874123E-2	-1","386260986E-2	4",3.53E+06
1,"224760271E1	1","933544874E-3	3","346705437E-2	-7","831668854E-2	8",5.19E+06
1,"226550536E1	2","022942901E-2	5","831575394E-2	-8","912086487E-3	6",2.36E+06
1,"228344182E1	1","468849182E-2	7","052803040E-2	8","086585999E-2	1",8.30E+06
1,"230135625E1	3","727287054E-2	9","562134743E-2	-2","947425842E-2	1",6.78E+06
1,"231926000E1	4","188087583E-2	8","376908302E-2	-1","166172028E-1	1",4.96E+07
1,"233718871E1	1","993227005E-2	5","894994736E-2	-7","051944733E-2	9",4.05E+06
1,"235511193E1	-5","667537451E-3	9","221601486E-2	4","264640808E-2	1",1.76E+06
1,"237302691E1	-3","844735026E-2	9","314441681E-2	5","724048615E-2	1",1.59E+07
1,"239094402E1	-8","362594247E-2	7","458662987E-2	-6","186485291E-2	1",2.80E+07
1,"240886022E1	-6","901627779E-2	3","905177116E-2	-5","878162384E-2	9",8.71E+06
1,"242676604E1	-6","320339441E-2	4","182338715E-2	7","411384583E-2	1",6.00E+06
1,"244469842E1	-6","422024965E-2	3","204417229E-2	4","508972168E-2	8",4.76E+06
1,"246261474E1	-4","160019755E-2	3","221249580E-2	-1","124401093E-1	1",2.41E+07
1,"248053307E1	-5","588114262E-3	4","351854324E-2	-1","465063095E-1	1",5.29E+07
1,"249843780E1	1","969885826E-2	4","131150246E-2	-1","331205368E-1	1",4.08E+07
1,"251636846E1	1","940298080E-2	2","512121201E-2	-1","247615814E-1	1",2.87E+07
1,"253428564E1	5","798983574E-2	6","625652313E-3	-7","490062714E-2	9",4.96E+06
1,"255220360E1	7","068109512E-2	1","897287369E-2	2","268123627E-2	7",6.62E+06
1,"257010821E1	4","081398249E-2	2","431607246E-2	1","305580139E-1	1",3.89E+07
1,"258803594E1	2","432531118E-2	5","475425720E-2	6","779861450E-2	9",4.79E+05
1,"260595952E1	6","758570671E-4	8","802342415E-2	-6","043148041E-2	1",6.77E+06
1,"262387420E1	2","802890539E-2	1","127600670E-1	-2","083168030E-1	2",3.85E+07
1,"264179210E1	5","035430193E-2	1","217832565E-1	-2","053260803E-1	2",4.40E+07
1,"265971026E1	3","548055887E-2	1","236596107E-1	-8","447551727E-2	1",5.39E+07
1,"267762652E1	4","690736532E-2	9","204840660E-2	9","393787384E-2	1",3.96E+07
1,"269554473E1	3","148525953E-2	6","706023216E-2	2","215957642E-1	2",3.37E+07
1,"271345971E1	9","952485561E-3	5","724143982E-2	2","026872635E-1	2",1.09E+07
1,"273138317E1	-4","576092958E-2	5","340719223E-2	8","979034424E-2	1",1.41E+07
1,"274929729E1	-1","528316736E-2	7","122492790E-2	2","507781982E-2	7",7.04E+06
1,"276721563E1	7","635077834E-2	1","088757515E-1	-6","364727020E-2	1",4.74E+07
1,"278513341E1	1","131625473E-1	8","712053299E-2	-1","299028397E-1	1",9.31E+07
1,"280305132E1	7","717436552E-2	4","472684860E-2	-5","460834503E-2	1",4.59E+06
1,"282096782E1	4","286229610E-2	1","230311394E-2	2","121257782E-2	4",9.38E+06
1,"283888561E1	1","733276248E-2	-1","929283142E-3	2","586364746E-2	3",1.19E+06
1,"285680462E1	2","042329311E-2	7","132053375E-3	-6","492996216E-2	6",8.44E+06
1,"287472204E1	8","366283774E-2	3","410673141E-2	-5","510330200E-2	1",5.83E+06
1,"289263866E1	9","455701709E-2	6","287956238E-2	-6","009387970E-2	1",2.85E+07
1,"291055718E1	8","210843801E-2	5","401301384E-2	-4","640388489E-2	1",8.69E+06
1,"292847484E1	1","133034527E-1	5","534410477E-2	-4","219055176E-3	1",2.62E+07
1,"294639245E1	1","040049195E-1	6","679892540E-2	6","096363068E-2	1",3.78E+07
1,"296430981E1	7","198387384E-2	6","832432747E-2	1","175909042E-1	1",5.39E+07
1,"298222771E1	4","486891627E-2	7","171106339E-2	1","132135391E-1	1",4.13E+07
1,"300014544E1	1","826500893E-2	4","567694664E-2	5","710220337E-2	7",5.37E+06
1,"301806035E1	3","371036053E-2	5","313730240E-2	1","951980591E-2	6",5.89E+06
1,"303598046E1	3","040844202E-2	6","471323967E-2	3","484058380E-2	7",9.54E+06
1,"305389825E1	9","746164083E-3	6","507444382E-2	3","051757812E-3	6",5.87E+06
1,"307181615E1	3","179463744E-2	6","631493568E-2	-1","436929703E-1	1",6.14E+07
1,"308973418E1	5","352798104E-2	3","700041771E-2	-1","626949310E-1	1",7.52E+07
1,"310765093E1	1","382550597E-2	-1","893734932E-2	-1","111507416E-2	2",5.95E+06
1,"312557006E1	7","317423820E-3	-2","385067940E-2	9","868621826E-2	1",1.79E+06
1,"314348565E1	1","570203900E-2	-1","794433594E-2	6","661128998E-2	7",7.50E+05
1,"316140319E1	3","251710534E-2	6","942749023E-3	-8","876609802E-2	9",4.79E+06
1,"317932384E1	5","406680703E-2	1","020312309E-2	-1","935148239E-1	2",1.18E+06
1,"319723992E1	5","469334126E-2	1","843595505E-2	-1","183366776E-1	1",3.17E+07
1,"321515783E1	1","819953322E-2	1","253437996E-2	3","313541412E-2	3",9.83E+06
1,"323306353E1	-3","952324390E-3	-9","985446930E-3	8","504867554E-2	8",5.72E+06
1,"325099016E1	-1","652151346E-2	-1","396703720E-2	4","173564911E-2	4",7.01E+06
1,"326891271E1	-1","898580790E-2	-4","788160324E-3	4","199981689E-2	4",6.34E+06
1,"328682836E1	-1","704922318E-2	2","242302895E-2	-5","753517151E-2	6",4.06E+06
1,"330474639E1	-2","185082436E-2	3","940725327E-2	-1","757068634E-1	1",8.14E+07
1,"332264751E1	-4","994392395E-3	3","146934509E-2	-2","336301804E-1	2",3.58E+07
1,"334056835E1	3","205558658E-2	8","407354355E-3	-1","504507065E-1	1",5.41E+07
1,"335850231E1	2","259415388E-2	-3","836393356E-3	6","102466583E-2	6",5.19E+06
1,"337641704E1	8","012056351E-4	-1","793217659E-2	2","783708572E-1	2",7.89E+07
1,"339433379E1	2","296313643E-2	2","435207367E-3	2","639017105E-1	2",6.49E+07
1,"341225200E1	2","475324273E-2	4","294848442E-2	1","031646729E-1	1",1.45E+07
1,"343016991E1	-1","208963990E-2	6","293725967E-2	-3","334236145E-2	7",2.24E+06
1,"344808764E1	-4","320964217E-2	6","933355331E-2	-1","222829819E-1	1",4.71E+07
1,"346599859E1	5","194216967E-3	8","838415146E-2	-2","080926895E-1	2",2.61E+07
1,"348392290E1	3","719308972E-2	8","064126968E-2	-1","472845078E-1	1",7.20E+07
1,"350184032E1	2","240556479E-2	4","912757874E-2	3","345584869E-2	6",3.52E+06
1,"351975872E1	1","815083623E-2	2","455377579E-2	1","621131897E-1	1",6.50E+07
1,"353767553E1	1","885586977E-2	1","965045929E-3	8","696269989E-2	8",9.01E+06
1,"355559307E1	3","786173463E-2	8","952379227E-3	-1","701927185E-2	4",2.47E+06
1,"357351012E1	5","411085486E-2	1","762962341E-2	-3","989982605E-2	6",9.50E+06
1,"359143010E1	-1","470312476E-2	3","627514839E-2	3","195667267E-2	5",5.30E+05
1,"360934649E1	-2","274173498E-2	2","988433838E-2	4","224777222E-2	5",6.53E+06
1,"362726427E1	1","504418254E-2	5","311274529E-2	-1","465225220E-2	5",7.11E+06
1,"364516894E1	2","406936884E-2	3","499865532E-2	8","835792542E-3	4",3.39E+06
1,"366309710E1	2","095779777E-2	2","638602257E-2	1","470432281E-1	1",5.09E+07
1,"368101995E1	3","618538380E-3	3","759860992E-4	1","999835968E-1	2",1.67E+04
1,"369893505E1	7","225215435E-3	1","707696915E-2	9","340190887E-2	9",5.22E+06
1,"371685265E1	4","696905613E-2	2","447223663E-2	-1","378955841E-1	1",4.77E+07
1,"373477050E1	5","571365356E-2	3","175306320E-2	-2","327194214E-1	2",4.14E+07
1,"375268780E1	3","932705522E-2	3","341317177E-2	-1","088628769E-1	1",2.05E+07
1,"377059044E1	2","798962593E-2	3","903627396E-2	-8","801460266E-3	4",8.83E+06
1,"378852599E1	-7","213264704E-3	3","337359428E-2	4","407405853E-2	5",5.75E+06
1,"380644158E1	-4","380393028E-2	2","653837204E-2	8","327198029E-2	9",7.76E+06
1,"382435839E1	-2","188292146E-2	3","775548935E-2	4","639530182E-2	6",3.69E+06
1,"384227642E1	-1","556560397E-2	5","842542648E-2	2","413749695E-2	6",5.10E+06
1,"386019414E1	2","420812845E-3	8","154582977E-2	3","173828125E-2	8",7.54E+06
1,"387811480E1	4","663196206E-2	3","710126877E-2	6","218624115E-2	8",6.13E+06
1,"389602819E1	1","115630567E-1	-1","089930534E-2	1","304693222E-1	1",7.20E+07
1,"391394774E1	1","452181935E-1	-2","305817604E-2	9","069538116E-2	1",7.28E+07
1,"393186449E1	1","032384634E-1	-4","726052284E-2	-1","773691177E-1	2",1.06E+07
1,"394978277E1	9","189307690E-2	-3","459000587E-2	-4","419164658E-1	4",5.27E+07
1,"396769774E1	1","128066182E-1	1","475548744E-2	-4","854717255E-1	4",9.86E+07
1,"398561761E1	1","359076202E-1	6","756782532E-2	-3","392229080E-1	3",7.16E+07
1,"400353564E1	9","114727378E-2	5","378961563E-2	-2","508239746E-1	2",7.22E+07
1,"402145372E1	7","456523180E-2	2","024888992E-2	-1","310491562E-1	1",5.21E+07
1,"403937084E1	7","199305296E-2	2","354001999E-2	5","938434601E-2	9",6.25E+06
1,"405727538E1	-1","072546840E-2	5","202174187E-2	2","429275513E-1	2",4.87E+07
1,"407518987E1	-8","614215255E-2	8","850193024E-2	2","280130386E-1	2",5.93E+07
1,"409312713E1	-9","924155474E-2	9","540486336E-2	7","435131073E-2	1",5.65E+07
1,"411104149E1	-5","457752943E-2	1","115486622E-1	4","475307465E-2	1",3.20E+07
1,"412895922E1	-1","219859719E-2	1","220929623E-1	1","304693222E-1	1",7.91E+07
1,"414687713E1	1","975771785E-2	1","089046001E-1	1","166696548E-1	1",6.08E+07
1,"416479491E1	9","878423810E-2	6","119823456E-2	8","408546448E-3	1",1.65E+07
1,"418271129E1	1","428658664E-1	-1","345372200E-2	-6","777572632E-2	1",5.87E+07
1,"420061565E1	1","229862571E-1	-3","765630722E-2	-5","812931061E-2	1",4.11E+07
1,"421854717E1	3","752082586E-2	-7","674312592E-2	-8","194255829E-2	1",1.84E+07
1,"423646886E1	-1","021078229E-2	-8","733248711E-2	-1","622800827E-1	1",8.46E+07
1,"425438256E1	2","147009969E-2	-3","831434250E-2	-2","863960266E-1	2",8.97E+07
1,"427230059E1	3","332236409E-2	8","829355240E-3	-3","166399002E-1	3",1.85E+07
1,"429020562E1	1","333576441E-2	3","523039818E-2	-2","432956696E-1	2",4.62E+07
1,"430813268E1	1","231265068E-2	5","872726440E-2	-1","041135788E-1	1",2.02E+07
1,"432605675E1	1","163676381E-2	7","014107704E-2	-7","980346680E-2	1",6.88E+06
1,"434397155E1	1","024618745E-2	9","160780907E-2	5","433750153E-2	1",7.00E+06
1,"436188921E1	-3","388613462E-3	1","084864140E-1	1","469211578E-1	1",8.27E+07
1,"437980675E1	1","082652807E-2	1","262915134E-1	1","033029556E-1	1",6.35E+07
1,"439772417E1	5","316230655E-2	1","485800743E-1	-5","086135864E-2	1",6.58E+07
1,"441564232E1	5","087485909E-2	1","114377975E-1	-4","854965210E-2	1",3.18E+07
1,"443356005E1	2","406340837E-2	4","666900635E-2	1","526041031E-1	1",6.14E+07
1,"445147765E1	1","317423582E-2	-5","981922150E-3	3","363924026E-1	3",3.67E+07
1,"446939257E1	3","529098630E-2	-2","894783020E-2	2","922563553E-1	2",9.58E+07
1,"448730987E1	6","009596586E-2	-4","598355293E-2	1","354761124E-1	1",5.52E+07
1,"450523363E1	6","994405389E-2	-1","802444458E-3	-1","010665894E-1	1",2.29E+07
1,"452314507E1	6","321811676E-2	-3","323793411E-3	-3","060684204E-1	3",1.25E+07
1,"454106896E1	6","693598628E-2	9","147167206E-3	-4","356193542E-1	4",4.08E+07
1,"455898363E1	6","423583627E-2	-1","139879227E-2	-3","869867325E-1	3",9.24E+07
1,"457690142E1	6","037464738E-2	-3","112721443E-2	-2","105751038E-1	2",2.13E+07
1,"459481896E1	2","825468779E-2	-2","050471306E-2	-1","621246338E-2	3",8.49E+06
1,"461273632E1	5","475908518E-3	-1","280617714E-2	1","605443954E-1	1",6.11E+07
1,"463065435E1	-9","691864252E-3	-5","890846252E-3	2","478742599E-1	2",4.81E+07
1,"464857195E1	1","624706388E-2	-8","752346039E-4	2","029800415E-1	2",3.63E+06
1,"466648986E1	3","199413419E-2	5","016446114E-2	8","818435669E-2	1",6.38E+06
1,"468440728E1	7","616639137E-2	5","328607559E-2	4","814910889E-2	1",4.69E+06
1,"470232464E1	7","457038760E-2	5","609679222E-2	5","176925659E-2	1",6.71E+06
1,"472024273E1	6","501749158E-2	4","883861542E-2	3","149700165E-2	8",7.20E+06
1,"473816082E1	5","853235722E-2	2","275037766E-2	1","604366302E-2	6",4.82E+06
1,"475607793E1	2","642396092E-2	-2","277207375E-2	5","324268341E-2	6",3.65E+06
1,"477399560E1	1","873311400E-2	-1","894712448E-3	9","551048279E-2	9",7.35E+06
1,"479191314E1	6","614705920E-2	1","468849182E-2	1","377000809E-1	1",5.35E+07
1,"480982995E1	3","982105851E-2	-1","320457458E-2	3","421850204E-1	3",4.47E+07
1,"482773675E1	1","900547743E-2	-3","830432892E-2	4","540758133E-1	4",5.61E+07
1,"484566656E1	1","233974099E-2	-6","474733353E-2	-1","816844940E-2	6",8.37E+06
1,"486358422E1	-9","038776159E-3	-8","173084259E-2	-4","836797714E-1	4",9.06E+07
1,"488148919E1	-2","075162530E-2	-5","418443680E-2	-4","325447083E-1	4",3.64E+07
1,"489941613E1	-1","640000939E-2	1","122975349E-2	-1","109151840E-1	1",1.27E+07
1,"491734051E1	-5","994048715E-2	2","350354195E-2	7","461071014E-2	9",8.55E+06
1,"493525493E1	-1","298052073E-1	-2","789258957E-3	1","400184631E-2	1",3.06E+07
1,"495317290E1	-1","078928411E-1	-5","914926529E-3	-1","515159607E-1	1",8.61E+07
1,"497109002E1	-2","015104890E-2	2","335476875E-2	-3","095426559E-1	3",1.11E+07
1,"498900768E1	2","626597881E-3	4","026269913E-2	-1","981868744E-1	2",2.25E+06
1,"500692553E1	-1","356381178E-2	5","142354965E-2	9","405040741E-2	1",8.05E+06
1,"502484356E1	-3","255146742E-2	2","502584457E-2	3","865318298E-1	3",8.87E+07
1,"504276079E1	-6","275463104E-2	1","462459564E-2	4","208707809E-1	4",2.58E+07
1,"506067876E1	-4","349294305E-2	2","731347084E-2	1","893577576E-1	1",9.62E+07
1,"507859643E1	-9","795308113E-3	9","934091568E-2	-1","069965363E-1	1",4.63E+07
1,"509651427E1	5","360442400E-2	1","513326168E-1	-3","288860321E-1	3",6.60E+07
1,"511442357E1	8","436608315E-2	1","235167980E-1	-3","586711884E-1	3",8.86E+07
1,"513234930E1	5","905508995E-2	4","728555679E-2	-1","081714630E-1	1",3.20E+07
1,"515026726E1	3","052073717E-2	-5","316019058E-3	1","514654160E-1	1",5.46E+07
1,"516818511E1	2","155309916E-2	-8","531332016E-3	2","417860031E-1	2",4.29E+07
1,"518608892E1	2","943933010E-3	-1","569747925E-2	2","050428391E-1	2",5.66E+06
1,"520401854E1	1","259484887E-2	8","254766464E-3	1","494894028E-1	1",5.02E+07
1,"522193767E1	2","575466037E-2	6","672143936E-3	5","645275116E-2	6",2.41E+06
1,"523985589E1	3","726819158E-2	-5","846977234E-3	-1","216650009E-1	1",2.74E+07
1,"525777294E1	3","778418899E-2	-3","066849709E-2	-3","347349167E-1	3",3.83E+07
1,"527567754E1	6","818866730E-2	-1","526522636E-2	-3","974933624E-1	4",3.59E+06
1,"529359533E1	1","235147417E-1	1","510429382E-2	-2","045078278E-1	2",3.94E+07
1,"531152636E1	9","455609322E-2	3","692388535E-2	-3","719329834E-5	1",1.51E+06
1,"532944335E1	2","338579297E-2	2","767157555E-2	-1","000080109E-1	1",6.37E+06
1,"534736120E1	2","538979053E-2	2","763056755E-2	-2","261905670E-1	2",2.93E+07
1,"536527929E1	4","886382818E-2	6","629562378E-2	-7","214069366E-2	1",9.49E+06
1,"538319707E1	5","553743243E-2	1","058773994E-1	2","122373581E-1	2",4.36E+07
1,"540111431E1	4","969462752E-2	1","145527363E-1	2","835187912E-1	3",9.80E+06
1,"541903228E1	7","949191332E-2	8","795952797E-2	1","934633255E-1	2",2.69E+07
1,"543694994E1	1","467020363E-1	4","811644554E-2	1","464748383E-1	2",1.28E+07
1,"545486779E1	8","154180646E-2	4","398298264E-2	8","115386963E-2	1",2.32E+07
1,"547278490E1	4","687586427E-2	7","546043396E-2	-5","441665649E-2	1",4.18E+06
1,"549070269E1	4","914501309E-2	7","923197746E-2	-2","141246796E-1	2",3.35E+07
1,"550862011E1	3","765696287E-2	5","923247337E-2	-2","952289581E-1	3",3.46E+06
1,"552653789E1	5","496841669E-2	6","861925125E-3	-1","686820984E-1	1",7.75E+07
1,"554445604E1	5","834800005E-2	-1","836133003E-2	1","015729904E-1	1",1.86E+07
1,"556237316E1	5","003765225E-2	-2","585864067E-2	2","537298203E-1	2",5.99E+07
1,"558029107E1	2","974420786E-2	-3","174853325E-2	2","208118439E-1	2",2.51E+07
1,"559820928E1	3","047171235E-2	-1","207041740E-2	5","046558380E-2	6",1.75E+05
1,"561611791E1	9","897142649E-3	2","072763443E-2	-1","763181686E-1	1",7.78E+07
1,"563404082E1	4","035240412E-2	8","357453346E-2	-3","271131516E-1	3",4.00E+07
1,"565196483E1	6","211230159E-2	1","180796623E-1	-3","943367004E-1	4",1.63E+07
1,"566987975E1	6","397816539E-2	7","777571678E-2	-2","299575806E-1	2",5.10E+07
1,"568779680E1	2","514463663E-2	-3","390550613E-3	7","576560974E-2	7",9.90E+06
1,"570570202E1	-1","679211855E-3	-2","271509171E-2	3","035182953E-1	3",4.37E+06
1,"572362902E1	-1","268744469E-3	-5","396842957E-3	1","894111633E-1	1",8.95E+07
1,"574155364E1	1","044198871E-2	-1","339197159E-3	-1","251850128E-1	1",2.56E+07
1,"575946758E1	3","894251585E-2	5","264997482E-3	-2","741975784E-1	2",7.70E+07
1,"577738531E1	4","282560945E-2	7","221460342E-3	-3","673419952E-1	3",6.99E+07
1,"579530303E1	2","752768993E-2	-4","557609558E-3	-4","745922089E-1	4",7.54E+07
1,"581322069E1	6","808343530E-2	-2","963542938E-4	-5","356779099E-1	5",4.00E+07
1,"583113830E1	-4","104197025E-2	-2","551090717E-1	-4","634056091E-1	5",3.06E+07
1,"584905608E1	1","018129438E-1	-4","081010818E-2	-1","423797607E-1	1",7.97E+07
1,"586697014E1	-5","094558001E-3	-2","453494072E-1	-1","832590103E-1	3",6.28E+06
1,"588489501E1	4","066750407E-2	-1","057245731E-1	-5","130672455E-1	5",2.54E+07
1,"590280883E1	1","443330944E-1	-2","571609020E-1	-9","627523422E-1	1",6.90E+06
1,"592072661E1	-1","315058470E-1	1","011810303E-1	-4","456815720E-1	4",7.56E+07
1,"593863232E1	-6","806853414E-2	-1","780803204E-1	-1","709880829E-1	2",5.61E+07
1,"595656225E1	-2","607296407E-2	8","955836296E-2	-3","106985092E-1	3",2.44E+07
1,"597447936E1	-7","638081908E-3	4","946970940E-2	-2","116708755E-1	2",1.75E+07
1,"599238378E1	-2","572309971E-2	6","487345695E-2	4","764080048E-2	8",4.50E+06
1,"601031158E1	6","197097898E-2	1","420502663E-1	3","035535812E-1	3",4.08E+07
1,"602823247E1	5","316756666E-2	9","206199646E-2	4","669055939E-1	4",7.89E+07
1,"604614818E1	6","480669975E-2	-1","690701246E-1	-1","606121063E-1	2",4.20E+07
1,"606406975E1	-3","322310746E-2	3","008939028E-1	-1","523647308E-1	3",3.89E+07
1,"608198571E1	-1","144483984E-1	-3","588080406E-3	-9","966373444E-2	1",5.18E+07
1,"609990368E1	5","992081761E-2	2","000802755E-1	9","738922119E-3	2",9.09E+06
1,"611781713E1	3","919840604E-2	1","858153343E-1	3","357410431E-1	3",8.57E+07
1,"613573827E1	4","672668129E-2	5","474960804E-2	6","514434814E-1	6",5.54E+07
1,"615365606E1	9","310854971E-2	-1","376637220E-1	5","507450104E-1	5",7.53E+07
1,"617157067E1	1","344488561E-1	3","203511238E-3	8","977127075E-2	1",6.17E+07
1,"618949376E1	8","812494576E-2	7","174956799E-2	-5","576419830E-2	1",2.66E+07
1,"620740899E1	2","631872892E-2	6","156194210E-2	-6","793022156E-2	9",5.38E+06
1,"622532677E1	7","664103806E-2	1","146470308E-1	-2","332296371E-1	2",7.09E+07
1,"624324444E1	1","299167573E-1	9","706771374E-2	-3","765268326E-1	4",9.97E+06
1,"626116161E1	2","722343802E-2	2","934169769E-2	-4","263286591E-1	4",2.82E+07
1,"627908013E1	-9","391599894E-2	1","625127792E-1	-3","020191193E-2	1",9.01E+07
1,"629699633E1	-3","122851253E-2	-3","734630346E-2	-1","131134033E-1	1",2.31E+07
1,"631491509E1	2","647259831E-2	4","401081800E-2	-1","597204208E-1	1",6.78E+07
1,"633282903E1	1","378242671E-2	9","496867657E-3	4","718112946E-2	5",6.20E+04
1,"635073968E1	1","283516288E-1	-6","105625629E-2	7","775306702E-2	1",6.20E+07
1,"636866570E1	1","134320349E-1	-3","756302595E-2	3","903102875E-2	1",2.57E+07
1,"638658727E1	-2","511307597E-3	-4","653459787E-2	8","201789856E-2	9",4.33E+06
1,"640450268E1	-5","129054189E-2	-6","666016579E-2	2","303619385E-1	2",4.52E+07
1,"642242058E1	2","596257627E-2	-1","712650061E-2	1","114234924E-1	1",1.57E+07
1,"644033605E1	-8","367191255E-2	-4","671168327E-2	1","562566757E-1	1",8.33E+07
1,"645825274E1	-7","702669501E-2	-1","259335876E-2	4","894924164E-2	9",2.13E+06
1,"647617650E1	-4","913522303E-2	2","338060737E-2	-9","234619141E-2	1",7.19E+06
1,"649409087E1	-6","646020710E-2	5","491375923E-2	-3","810310364E-2	9",4.26E+06
1,"651200860E1	8","403830230E-2	1","559647322E-1	-1","169347763E-1	2",1.23E+07
1,"652991332E1	-4","339630902E-2	1","180703938E-2	-5","828857422E-3	4",5.35E+06
1,"654784331E1	-2","752046585E-1	-1","800798476E-1	2","550678253E-1	4",1.62E+07
1,"656575817E1	-3","356387317E-1	-2","669460475E-1	4","736051559E-1	6",3.89E+07
1,"658368243E1	-1","003962904E-1	5","613138154E-2	6","081552505E-1	6",1.89E+07
1,"660159734E1	2","487228513E-1	2","492295802E-1	4","688863754E-1	5",8.64E+07
1,"661951415E1	2","801695466E-1	1","484521478E-1	1","198759079E-1	3",3.90E+07
1,"663741918E1	1","524644047E-1	1","290653348E-1	1","013097763E-1	2",2.40E+07
1,"665534966E1	-2","420082688E-3	4","218668491E-2	1","306285858E-1	1",3.73E+07
1,"667326055E1	8","390054107E-2	2","815722302E-2	7","797241211E-2	1",1.79E+07
1,"669118450E1	1","008930802E-1	4","633257166E-2	1","836185455E-1	2",1.46E+07
1,"670910235E1	8","743323386E-2	7","037486136E-2	9","311771393E-2	1",4.58E+07
1,"672702007E1	-3","093020618E-2	2","588206902E-2	1","270284653E-1	1",3.33E+07
1,"674493773E1	-5","198615789E-2	8","293345571E-2	8","495330811E-2	1",2.96E+07
1,"676285460E1	5","752614141E-2	1","797298193E-1	1","904382706E-1	2",6.81E+07
1,"678075994E1	1","554057896E-1	1","818883121E-1	8","036327362E-2	2",5.24E+07
1,"679869176E1	2","372392118E-1	2","616081238E-1	-4","342460632E-2	3",5.58E+07
1,"681660839E1	2","579702437E-1	2","688228190E-1	-2","874374390E-2	3",7.37E+07
1,"683452538E1	1","806308627E-1	1","676566526E-2	1","564378738E-1	2",3.95E+07
1,"685244366E1	9","092122316E-2	-1","602750719E-1	2","277374268E-1	2",9.29E+07
1,"687035747E1	2","241751850E-1	-1","481340080E-1	2","700529099E-1	3",8.10E+07
1,"688828191E1	4","671168029E-1	-1","350281686E-1	2","118339539E-1	5",3.04E+07
1,"690619561E1	2","638742328E-1	6","813593209E-2	2","994155884E-1	4",4.87E+06
1,"692409710E1	-6","574442983E-2	-2","993242443E-2	1","815843582E-1	1",9.54E+07
1,"694203448E1	-1","799731255E-1	-1","870608926E-1	7","206344604E-2	2",6.94E+07
1,"695994933E1	-1","467797458E-1	-2","332514524E-1	2","255334854E-1	3",5.61E+07
1,"697786620E1	-1","164603829E-1	-3","151516914E-1	7","038002014E-1	7",7.99E+07
1,"699578399E1	-2","821095288E-2	-2","048029453E-1	6","439800262E-1	6",7.64E+07
1,"701370147E1	1","082472056E-1	-7","849273086E-2	9","774780273E-2	1",6.56E+07
1,"703161938E1	1","200297028E-1	-3","496444225E-2	-3","372697830E-1	3",5.97E+07
1,"704953661E1	5","959682912E-2	2","210342884E-2	6","448745728E-3	6",3.89E+06
1,"706745415E1	3","646039367E-1	-1","078766584E-1	2","091312408E-1	4",3.39E+07
1,"708537182E1	1","047462523E-1	-4","607349634E-2	4","843559265E-1	4",9.77E+07
1,"710328978E1	-3","869265318E-2	-2","663004398E-2	1","698808670E-1	1",7.63E+07
1,"712120708E1	-1","891616583E-1	-5","988317728E-2	-1","715812683E-1	2",6.23E+07
1,"713912475E1	-2","514774203E-1	1","122981906E-1	-3","627519608E-1	4",5.55E+07
1,"715704229E1	-3","722359836E-1	1","804680824E-1	-4","508113861E-1	6",1.18E+07
1,"717494707E1	-2","652007341E-2	1","856451035E-1	-7","100353241E-1	7",3.44E+07
1,"719287682E1	-6","107926369E-3	3","019242287E-1	-8","961544037E-1	9",4.57E+07
1,"721079528E1	-2","081858516E-1	1","324510574E-1	-6","813573837E-1	7",2.47E+07
1,"722871264E1	-3","752513528E-1	1","586008072E-2	-2","780923843E-1	4",6.73E+07
1,"724663067E1	-2","834094167E-1	-8","849000931E-2	2","592039108E-1	3",9.41E+07
1,"726453564E1	-1","230239868E-3	-1","222199202E-1	4","012727737E-1	4",1.95E+07
1,"728246276E1	1","118532121E-1	-7","840776443E-2	4","090604782E-1	4",3.13E+07
1,"730038598E1	3","152366281E-1	-3","861021996E-2	2","182693481E-1	3",8.54E+07
1,"731830102E1	3","110790849E-1	-3","964591026E-2	2","944087982E-2	3",1.50E+07
1,"733621801E1	1","070705503E-1	-7","561850548E-2	-1","683654785E-1	2",1.34E+07
1,"735413579E1	-9","084597230E-2	-1","130304337E-1	-3","000526428E-1	3",3.33E+07
1,"737204784E1	-1","593988836E-1	-9","438669682E-2	-3","185625076E-1	3",6.85E+07
1,"738997112E1	-2","117717266E-2	-1","521925926E-1	-2","389030457E-1	2",8.41E+07
1,"740788848E1	1","079580337E-1	-2","640626431E-1	-8","293819427E-2	2",9.71E+07
1,"742580620E1	2","147084475E-2	-2","462810278E-1	1","613197327E-1	2",9.52E+07
1,"744372368E1	2","188682854E-1	4","536620378E-1	1","448192596E-1	5",2.41E+07
1,"746164110E1	2","841697335E-1	1","948258877E-1	-3","718423843E-1	5",6.93E+06
1,"747955907E1	1","030895859E-1	8","282542229E-3	-3","799428940E-1	3",9.38E+07
1,"749747613E1	7","722407579E-3	4","161036015E-2	-1","929941177E-1	1",9.76E+07
1,"751539458E1	5","132654309E-2	4","332411289E-2	2","127895355E-1	2",2.31E+07
1,"753331133E1	-7","361128926E-3	-2","225828171E-2	1","957073212E-1	1",9.71E+07
1,"755122893E1	8","835052699E-2	1","779782772E-1	1","041011810E-1	2",2.43E+07
1,"756914690E1	1","413110197E-1	1","240799427E-1	4","408836365E-2	1",9.32E+07
1,"758706212E1	8","123524487E-2	5","519986153E-2	-2","471828461E-2	1",1.28E+06
1,"760498009E1	4","506255686E-2	2","673470974E-2	-1","890783310E-1	1",9.62E+07
1,"762290117E1	1","269860566E-2	-1","181709766E-2	-1","778612137E-1	1",7.87E+07
1,"764081719E1	1","184299588E-2	-3","619980812E-2	-7","640647888E-2	8",5.37E+06
1,"765873467E1	5","075879395E-2	-3","789770603E-2	-5","991077423E-2	8",7.19E+06
1,"767664019E1	4","878221452E-2	-4","604578018E-2	-1","196222305E-1	1",3.71E+07
1,"769456982E1	4","519231617E-2	-1","495873928E-2	-2","218675613E-1	2",2.69E+07
1,"771248705E1	-4","833728075E-3	2","221310139E-2	-3","539028168E-1	3",5.46E+07
1,"773040478E1	2","180285752E-2	6","019413471E-2	-2","867822647E-1	2",9.38E+07
1,"774832232E1	5","311167240E-2	1","379001141E-2	-1","345653534E-1	1",4.53E+07
1,"776623968E1	1","790048182E-2	1","446306705E-2	-3","422260284E-2	4",1.24E+06
1,"778415752E1	-9","378209710E-3	6","037473679E-3	-5","573272705E-3	1",2.47E+06
1,"780207525E1	-1","014035940E-2	4","066145420E-2	-2","420234680E-2	4",8.39E+06
1,"781999267E1	3","133966029E-2	1","100878716E-1	-5","245208740E-4	1",1.45E+07
1,"783790691E1	3","424309194E-2	1","436156034E-1	2","407455444E-2	1",4.96E+07
1,"785583086E1	7","924586535E-3	1","378172636E-1	9","966850281E-3	1",3.84E+07
1,"787374535E1	2","739512920E-2	1","222056150E-1	-4","243755341E-2	1",3.22E+07
1,"789166259E1	6","397770345E-2	1","216841936E-1	-5","254077911E-2	1",4.72E+07
1,"790956719E1	1","012332737E-1	9","206163883E-2	-3","327655792E-2	1",4.08E+07
1,"792749859E1	8","228649199E-2	6","217038631E-2	4","434585571E-4	1",3.13E+06
1,"794541478E1	7","900527120E-2	6","436920166E-2	-2","297019958E-2	1",4.46E+06
1,"796333104E1	9","382271767E-2	1","266757250E-1	-8","358669281E-2	1",7.84E+07
1,"798125268E1	7","528088987E-2	1","361691952E-1	-2","256307602E-1	2",7.41E+07
1,"799916558E1	2","350699902E-2	9","545052052E-2	-2","739124298E-1	2",9.10E+07
1,"801708642E1	1","118358970E-2	4","325187206E-2	-1","280632019E-1	1",3.56E+07
1,"803500274E1	-6","347835064E-2	-1","306152344E-2	-9","803771973E-4	6",4.82E+06
1,"805292034E1	-6","825873256E-2	-3","341925144E-2	4","476451874E-2	8",8.20E+06
1,"807083843E1	-4","686129093E-2	1","975166798E-2	-6","082534790E-2	7",9.28E+06
1,"808875573E1	-4","141795635E-2	6","507945061E-2	-3","741455078E-2	8",5.74E+06
1,"810667351E1	2","386808395E-3	1","340297461E-1	-9","998130798E-2	1",6.72E+07
1,"812457781E1	7","526379824E-2	1","662149429E-1	-1","723642349E-1	2",5.10E+07
1,"814250847E1	7","964621484E-2	1","022346020E-1	-1","839408875E-1	2",2.50E+07
1,"816042614E1	4","694145918E-2	5","164575577E-2	-1","430406570E-1	1",5.92E+07
1,"817834380E1	3","364984691E-2	6","561636925E-3	2","442359924E-3	3",4.37E+06
1,"819626092E1	1","110549271E-2	-7","879018784E-3	1","506710052E-2	2",3.08E+05
1,"821417852E1	2","574300766E-2	1","410913467E-2	-1","008224487E-2	3",1.04E+06
1,"823209594E1	5","709862709E-2	4","272615910E-2	-4","922294617E-2	8",6.65E+06
1,"825001116E1	4","133936763E-2	4","813313484E-2	-5","438518524E-2	8",3.57E+06
1,"826792772E1	3","181976080E-2	7","047069073E-2	-8","447456360E-2	1",1.45E+07
1,"828584929E1	9","331241250E-3	5","566859245E-2	-1","902198792E-2	5",9.56E+06
1,"830376885E1	1","425763965E-2	5","728578568E-2	8","004188538E-3	5",9.57E+06
1,"832167516E1	4","316921532E-2	5","652475357E-2	7","922172546E-3	7",1.56E+06
1,"833960058E1	5","312988162E-2	7","985818386E-2	7","220268250E-3	9",6.19E+06
1,"835751928E1	5","036196113E-2	7","096374035E-2	2","010631561E-2	8",9.31E+06
1,"837543627E1	4","258832335E-2	4","673552513E-2	1","102228165E-1	1",2.71E+07
1,"839335381E1	3","658373654E-2	1","030635834E-2	1","476774216E-1	1",5.25E+07
1,"841127343E1	2","667315304E-2	-5","592107773E-3	9","541511536E-2	9",9.23E+06
1,"842918517E1	-3","088504076E-3	-2","474308014E-3	7","019042969E-4	4",1.92E+04
1,"844710967E1	-6","953537464E-3	2","048492432E-3	-2","794170380E-2	2",8.87E+06
1,"846502453E1	8","369505405E-3	-6","607389450E-2	8","641433716E-2	1",9.10E+06
1,"848294115E1	1","964980364E-2	-1","215425730E-1	9","112739563E-2	1",5.32E+07
1,"850085912E1	5","609667301E-2	-1","205776930E-1	1","031875610E-3	1",3.30E+07
1,"851877660E1	7","937285304E-2	-8","599293232E-2	-5","024719238E-2	1",2.74E+07
1,"853669439E1	7","858917117E-2	-2","250576019E-2	-1","020736694E-1	1",3.08E+07
1,"855461126E1	9","769040346E-2	2","900481224E-3	-1","014919281E-1	1",4.09E+07
1,"857251641E1	5","641663074E-2	-4","021334648E-2	-8","709335327E-2	1",1.13E+07
1,"859044640E1	5","772808194E-2	-7","088160515E-2	-3","499698639E-2	9",7.89E+06
1,"860836461E1	6","012825668E-2	-6","081688404E-2	8","939933777E-2	1",2.37E+07
1,"862628100E1	1","659840345E-2	-2","119541168E-2	5","243110657E-2	5",8.94E+06
1,"864419866E1	5","999505520E-4	3","707194328E-2	-2","753829956E-2	4",6.18E+06
1,"866211669E1	1","228174567E-2	6","198418140E-2	-4","526329041E-2	7",7.73E+06
1,"868003454E1	2","296760678E-2	8","133280277E-2	-6","416416168E-2	1",6.11E+06
1,"869795159E1	-4","150658846E-3	3","753900528E-2	-1","453456879E-1	1",5.02E+07
1,"871585595E1	1","466551423E-2	-3","830873966E-2	-6","087970734E-2	7",3.41E+06
1,"873377349E1	-1","259663701E-2	-9","577107430E-2	1","959362030E-1	2",1.85E+07
1,"875170409E1	-4","306972027E-2	-9","323132038E-2	2","825574875E-1	3",6.42E+05
1,"876962200E1	-3","670775890E-2	-5","902266502E-2	1","029930115E-1	1",2.43E+07
1,"878753911E1	-1","134815812E-2	5","078721046E-2	-1","141138077E-1	1",2.54E+07
1,"880545373E1	2","833095193E-2	9","696519375E-2	-2","230453491E-1	2",4.49E+07
1,"882336626E1	5","402843654E-2	1","119580269E-1	-1","843662262E-1	2",2.24E+07
1,"884129156E1	2","891731262E-2	4","521751404E-2	4","788112640E-2	7",1.93E+06
1,"885919286E1	3","865024447E-2	-2","986097336E-2	2","048330307E-1	2",1.06E+07
1,"887712987E1	1","075923443E-3	-6","422686577E-2	1","674461365E-1	1",7.93E+07
1,"889504448E1	-1","071780920E-3	-1","621890068E-2	-2","168273926E-2	2",7.10E+06
1,"891296160E1	-9","257227182E-3	5","158627033E-2	-1","726694107E-1	1",8.04E+07
1,"893087920E1	1","257160306E-2	5","397975445E-2	-2","583303452E-1	2",6.42E+07
1,"894879662E1	1","675492525E-2	3","726565838E-2	-1","726522446E-1	1",7.74E+07
1,"896671459E1	4","562695324E-2	-4","238486290E-3	-3","007507324E-2	5",4.81E+06
1,"898462829E1	7","668673992E-3	-5","751144886E-2	-1","570224762E-2	6",1.08E+05
1,"900255053E1	-2","087506652E-2	-9","536135197E-2	-7","798671722E-2	1",2.49E+07
1,"902046886E1	-2","624806762E-2	-1","160172224E-1	-5","943584442E-2	1",3.30E+07
1,"903838451E1	5","025267601E-4	-8","016097546E-2	-1","683712006E-2	8",1.91E+06
1,"905628954E1	6","539972126E-2	-2","726006508E-2	-4","555320740E-2	8",4.23E+06
1,"907421715E1	5","482594669E-2	1","156377792E-2	-1","221246719E-1	1",3.44E+07
1,"909213884E1	6","133483350E-2	2","079033852E-2	-1","324224472E-1	1",4.74E+07
1,"911005468E1	4","456539452E-2	-1","088225842E-2	-3","791141510E-2	5",9.51E+06
1,"912797161E1	2","019172907E-2	-6","389856339E-3	6","169033051E-2	6",5.22E+06
1,"914588311E1	4","247222841E-2	8","201956749E-3	8","552932739E-2	9",5.85E+06
1,"916380340E1	5","101849139E-2	3","658235073E-2	4","737567902E-2	7",8.65E+06
1,"918172753E1	4","732373357E-2	2","717161179E-2	9","095191956E-3	5",5.32E+06
1,"919964165E1	3","733721375E-2	5","033063889E-2	-1","890087128E-2	6",5.46E+06
1,"921755956E1	6","019435823E-2	6","278014183E-2	-6","155109406E-2	1",6.55E+06
1,"923547680E1	8","518762887E-2	5","485355854E-2	-1","240167618E-1	1",6.01E+07
1,"925339428E1	9","066863358E-2	-5","242109299E-3	-3","976917267E-2	9",9.15E+06
1,"927131127E1	3","733497858E-2	-7","518959045E-2	1","783876419E-1	1",9.72E+07
1,"928922912E1	-2","108901739E-2	-1","267611980E-1	2","923107147E-1	3",1.93E+07
1,"930715191E1	-1","272451878E-2	-7","464945316E-2	1","790533066E-1	1",9.44E+07
1,"932506456E1	4","607200623E-3	1","739740372E-2	-9","088325500E-2	9",2.65E+06
1,"934298138E1	2","217122912E-2	6","980824471E-2	-3","094797134E-1	3",1.80E+07
1,"936089892E1	2","052345872E-2	7","610177994E-2	-3","050031662E-1	3",1.50E+07
1,"937881640E1	2","870984375E-2	2","538073063E-2	-1","680383682E-1	1",7.24E+07
1,"939673430E1	1","391580701E-2	-6","835985184E-2	4","051303864E-2	8",6.72E+05
1,"941465142E1	-1","415628195E-2	-1","077259779E-1	1","875305176E-1	2",1.67E+07
1,"943256908E1	1","071950793E-2	-7","080101967E-2	1","590948105E-1	1",7.45E+07
1,"945048302E1	1","557081938E-2	2","161264420E-3	-1","593208313E-2	2",2.38E+06
1,"946839715E1	-1","999884844E-2	5","135524273E-2	-1","487779617E-1	1",5.87E+07
1,"948632128E1	-3","857138753E-2	2","858304977E-2	-1","256322861E-1	1",3.45E+07
1,"950423888E1	8","257925510E-4	1","637864113E-2	-9","725666046E-2	9",8.63E+06
1,"952215654E1	2","757005394E-2	6","295084953E-3	-8","765411377E-2	9",2.10E+06
1,"954007427E1	2","869448066E-2	2","003061771E-2	-6","372261047E-2	7",2.70E+06
1,"955798900E1	8","776718378E-2	3","369092941E-3	-2","585124969E-2	9",1.56E+06
1,"957590532E1	9","151044488E-2	-4","168152809E-2	1","021318436E-1	1",4.33E+07
1,"959382921E1	6","712661684E-2	-6","035101414E-2	1","396055222E-1	1",6.62E+07
1,"961174413E1	3","798300028E-2	-4","955446720E-2	7","382202148E-2	9",6.69E+06
1,"962966064E1	1","968365908E-2	-1","351857185E-2	-6","863594055E-2	7",2.67E+06
1,"964757879E1	-9","530842304E-3	1","097238064E-2	-8","788871765E-2	8",9.08E+06
1,"966549633E1	-2","767872810E-2	2","572774887E-3	-1","638221741E-2	3",2.27E+06
1,"968341411E1	-1","801064610E-2	-1","002550125E-3	1","212692261E-2	2",1.74E+06
1,"970133104E1	-8","339762688E-3	-1","546859741E-2	3","129100800E-2	3",5.89E+06
1,"971924871E1	-2","022489905E-2	-2","539086342E-2	1","706314087E-2	3",6.67E+06
1,"973715307E1	-2","367052436E-2	6","815195084E-3	-4","478645325E-2	5",1.11E+06
1,"975508379E1	-1","440471411E-2	4","988038540E-2	-4","815578461E-2	7",8.13E+05
1,"977300066E1	-5","427658558E-3	8","915340900E-2	-1","383209229E-1	1",6.47E+07
1,"979091820E1	5","694046617E-2	8","000838757E-2	-1","718730927E-1	1",9.79E+07
1,"980883605E1	3","516831994E-2	-5","365371704E-3	-5","865383148E-2	6",8.60E+06
1,"982675335E1	2","634885907E-2	-4","352939129E-2	1","306314468E-1	1",4.02E+07
1,"984467058E1	2","708196640E-2	-4","462969303E-2	1","691265106E-1	1",7.70E+07
1,"986258855E1	2","679535747E-2	-7","060050964E-3	-2","542495728E-2	3",7.61E+06
1,"988049694E1	6","762556732E-2	5","617928505E-2	-2","059574127E-1	2",2.39E+07
1,"989842412E1	6","641586125E-2	7","406556606E-2	-2","433576584E-1	2",6.29E+07
1,"991633990E1	1","048718095E-1	7","495427132E-2	-2","530775070E-1	2",8.40E+07
1,"993425811E1	6","515781581E-2	2","804017067E-2	-2","157917023E-1	2",2.72E+07
1,"995217571E1	4","159623384E-2	-9","406447411E-3	-6","024456024E-2	7",3.81E+06
1,"997008037E1	1","666978002E-2	-3","045713902E-2	1","675481796E-1	1",7.11E+07
1,"998800695E1	-2","443984151E-2	-1","571393013E-2	2","398033142E-1	2",4.16E+07
2,"000593120E1	-1","473939419E-2	3","569126129E-4	1","878089905E-1	1",8.84E+07
2,"002384539E1	-2","221345901E-2	8","089065552E-3	1","355438232E-1	1",3.76E+07
2,"004176354E1	-2","443745732E-2	-1","636219025E-2	1","643218994E-1	1",6.69E+07
2,"005968010E1	-4","139286280E-2	-3","315067291E-2	2","216157913E-1	2",2.79E+07
2,"007759789E1	-2","235394716E-2	-4","954576492E-2	1","845178604E-1	1",9.24E+07
2,"009551537E1	-6","479755044E-2	-4","375183582E-2	1","052570343E-1	1",3.11E+07
2,"011343310E1	-4","066967964E-2	-5","001902580E-3	-3","104209900E-3	4",1.09E+06
2,"013134814E1	-4","030072689E-2	2","792704105E-2	-9","631252289E-2	1",8.07E+06
2,"014926928E1	-4","217037559E-2	5","681455135E-2	-2","088708878E-1	2",2.05E+07
2,"016718523E1	-1","225006580E-2	4","945206642E-2	-2","076778412E-1	2",1.38E+07
2,"018510277E1	-1","931774616E-2	-1","654350758E-2	-1","168527603E-1	1",1.96E+07
2,"020301440E1	-9","428262711E-4	-5","630230904E-2	7","795333862E-3	5",6.85E+06
2,"022093694E1	2","668559551E-2	-5","110430717E-2	8","929920197E-2	1",6.29E+06
2,"023885552E1	1","074913144E-2	-1","483917236E-2	3","363704681E-2	3",8.30E+06
2,"025677270E1	2","480095625E-2	-4","736602306E-2	9","783744812E-3	5",4.35E+06
2,"027468963E1	-9","430289268E-3	-5","423259735E-2	5","788516998E-2	7",9.88E+06
2,"029261040E1	9","873002768E-3	-1","817214489E-2	7","347488403E-2	7",6.33E+06
2,"031052495E1	4","093118012E-2	4","043114185E-2	-1","335763931E-1	1",4.54E+07
2,"032844225E1	7","351826131E-2	9","492158890E-2	-3","803491592E-1	3",9.88E+07
2,"034634612E1	1","325402558E-1	8","348095417E-2	-3","145675659E-1	3",5.14E+07
2,"036427715E1	1","081616431E-1	-1","439201832E-2	1","762104034E-2	1",1.05E+07
2,"038219445E1	8","950853348E-2	-7","759654522E-2	2","650613785E-1	2",9.03E+07
2,"040011242E1	8","981031179E-2	-8","527410030E-2	2","512359619E-1	2",8.01E+07
2,"041802898E1	9","392604232E-2	-2","917683125E-2	1","142683029E-1	1",5.08E+07
2,"043594677E1	1","065123528E-1	3","502857685E-2	-8","102416992E-3	1",1.24E+07
2,"045386406E1	9","800191224E-2	7","551646233E-2	-1","258783340E-1	1",7.65E+07
2,"047178197E1	1","527591050E-1	6","245791912E-2	-9","217071533E-2	1",8.90E+07
2,"048969976E1	1","164592206E-1	2","285134792E-2	-7","749557495E-2	1",4.17E+07
2,"050761535E1	6","530791521E-2	-3","018331528E-2	-1","994705200E-2	7",4.66E+06
2,"052553338E1	1","170596480E-2	-5","303680897E-2	8","600234985E-2	1",1.72E+06
2,"054345031E1	2","344197035E-2	-2","267467976E-2	5","402851105E-2	6",3.11E+06
2,"056137145E1	2","981482446E-2	3","068375587E-2	-5","841064453E-2	7",2.40E+06
2,"057928637E1	1","162970066E-2	6","293082237E-2	-1","761684418E-1	1",8.74E+07
2,"059720385E1	1","334109902E-2	5","576252937E-2	-1","326017380E-1	1",4.45E+07
2,"061511181E1	1","635432243E-2	1","663088799E-2	-4","155731201E-2	4",7.66E+06
2,"063303838E1	-4","541575909E-3	-4","193496704E-2	4","894542694E-2	6",4.61E+06
2,"065095617E1	-1","166912913E-2	-7","833528519E-2	7","348918915E-2	1",8.04E+06
2,"066887328E1	-2","014517784E-2	-6","138265133E-2	1","262187958E-2	6",5.83E+06
2,"068679119E1	-1","862436533E-3	-2","230787277E-2	-1","907815933E-1	1",9.21E+07
2,"070470745E1	-3","049790859E-3	1","833999157E-2	-2","756423950E-1	2",7.63E+07
2,"072262279E1	4","161837697E-2	5","692112446E-2	-3","042325974E-1	3",1.23E+07
2,"074054650E1	4","195109010E-2	2","150988579E-2	-2","951955795E-1	2",9.89E+07
2,"075846087E1	2","007445693E-2	-4","858970642E-4	-1","782016754E-1	1",7.93E+07
2,"077637792E1	-5","348622799E-4	3","185272217E-3	-7","536888123E-3	8",2.00E+05
2,"079428270E1	6","061911583E-3	9","822845459E-4	9","102249146E-2	9",1.23E+06
2,"081221282E1	-6","886631250E-3	9","966492653E-3	1","810989380E-1	1",8.15E+07
2,"083013060E1	-3","374832869E-2	4","115581512E-2	1","820039749E-1	1",8.96E+07
2,"084804754E1	-1","969739795E-2	9","628689289E-2	9","222221375E-2	1",3.48E+07
2,"086595220E1	-1","533722878E-2	1","445806026E-1	-5","939006805E-2	1",5.71E+07
2,"088388250E1	-9","789824486E-3	1","342092752E-1	-1","453580856E-1	1",9.81E+07
2,"090180053E1	3","772348166E-3	8","985912800E-2	-1","815223694E-2	9",1.75E+06
2,"091971728E1	5","812525749E-3	3","476750851E-2	2","246637344E-1	2",2.74E+07
2,"093763451E1	1","704037189E-2	-7","930040359E-3	3","251600266E-1	3",2.57E+07
2,"095555236E1	3","470474482E-2	-2","146506310E-2	2","263841629E-1	2",3.00E+07
2,"097347008E1	3","515100479E-2	1","546311378E-2	1","861667633E-2	4",2.68E+06
2,"099138689E1	1","731973886E-2	2","432906628E-2	-2","131614685E-1	2",1.52E+07
2,"100930462E1	4","353731871E-3	3","722393513E-2	-3","453083038E-1	3",4.73E+07
2,"102720928E1	-3","104892373E-2	3","617894650E-2	-3","163042068E-1	3",1.99E+07
2,"104513750E1	-5","619812012E-2	-1","330947876E-2	-2","505245209E-1	2",5.71E+07
2,"106305883E1	-1","074159741E-1	-5","582308769E-2	-1","272010803E-1	1",7.56E+07
2,"108097448E1	-6","519776583E-2	-6","093168259E-2	-2","819442749E-2	9",3.59E+06
2,"109889178E1	-2","566125989E-2	-1","237857342E-2	-1","884746552E-2	3",4.16E+06
2,"111679717E1	-2","487474680E-2	2","952480316E-2	-1","137542725E-1	1",2.01E+07
2,"113472625E1	-2","123603225E-2	5","953848362E-2	-2","235231400E-1	2",3.23E+07
2,"115264403E1	-3","791123629E-3	5","032837391E-2	-1","965780258E-1	2",2.95E+06
2,"117056127E1	1","463365555E-2	2","976298332E-2	-5","543613434E-2	6",4.60E+06
2,"118847863E1	3","800241649E-2	-4","812479019E-4	9","125614166E-2	9",8.85E+06
2,"120639599E1	3","512892127E-2	7","322430611E-3	1","479082108E-1	1",5.22E+07
2,"122431371E1	8","141028881E-2	5","683231354E-2	-4","729270935E-3	9",9.40E+06
2,"124221856E1	9","325917065E-2	1","104941368E-1	-1","574048996E-1	2",1.37E+07
2,"126014892E1	1","094013155E-1	9","600234032E-2	-1","445970535E-1	2",5.17E+06
2,"127806548E1	1","269202530E-1	4","113113880E-2	1","117897034E-2	1",3.39E+07
2,"129598351E1	1","321779639E-1	-2","459621429E-2	2","145309448E-1	2",5.32E+07
2,"131390056E1	1","342714876E-1	8","678436279E-4	1","766195297E-1	2",2.19E+07
2,"133181841E1	1","351625025E-1	2","415919304E-2	7","638931274E-2	1",5.71E+07
2,"134973479E1	8","404681087E-2	3","817856312E-2	2","434062958E-2	9",5.47E+06
2,"136765191E1	4","183019698E-2	4","424703121E-2	7","198524475E-2	9",4.28E+06
2,"138556817E1	4","597391188E-2	5","607509613E-2	6","764793396E-2	9",9.17E+06
2,"140349132E1	4","827137291E-2	6","506419182E-2	-5","513095856E-2	9",7.99E+06
2,"142140496E1	5","151322484E-2	7","102811337E-2	-1","358613968E-1	1",6.17E+07
2,"143931444E1	3","784076869E-2	5","311226845E-2	-1","073551178E-1	1",2.56E+07
2,"145723913E1	1","718911529E-2	1","775383949E-2	6","323814392E-3	2",5.51E+06
2,"147515874E1	-8","076876402E-3	-4","212975502E-3	1","070280075E-1	1",7.41E+06
2,"149307415E1	-4","322874546E-2	-1","285707951E-2	1","213026047E-1	1",2.94E+07
2,"151099242E1	-6","827890873E-2	-8","915066719E-3	1","215639114E-1	1",3.97E+07
2,"152890960E1	-7","480803132E-2	1","639628410E-2	7","023906708E-2	1",3.92E+06
2,"154682696E1	-8","135086298E-2	3","877937794E-2	-3","376293182E-2	9",6.24E+06
2,"156474407E1	-6","889608502E-2	7","258689404E-2	-1","948280334E-1	2",1.90E+07
2,"158266173E1	-5","681264400E-2	5","366802216E-2	-1","953907013E-1	2",1.04E+07
2,"160057940E1	-3","492626548E-2	4","952073097E-3	-2","926921844E-2	4",5.84E+06
2,"161849688E1	-3","171852231E-2	-6","061363220E-2	1","606454849E-1	1",7.46E+07
2,"163641399E1	-6","643640995E-2	-1","035310030E-1	1","616172791E-1	2",3.11E+06
2,"165433153E1	-2","505257726E-2	-4","498803616E-2	-2","259922028E-2	5",6.23E+06
2,"167224846E1	5","149841309E-5	4","821085930E-2	-2","159643173E-1	2",2.13E+07
2,"169015496E1	-1","286873221E-2	6","222689152E-2	-2","574253082E-1	2",6.52E+07
2,"170808355E1	-2","874660492E-2	1","992750168E-2	-2","342481613E-1	2",3.68E+07
2,"172600091E1	1","652321219E-2	-2","125144005E-3	-5","897808075E-2	6",1.29E+06
2,"174391839E1	1","984402537E-2	-5","084955692E-2	2","075061798E-1	2",1.46E+07
2,"176183336E1	1","408496499E-2	-5","056166649E-2	3","278264999E-1	3",3.20E+07
2,"177975237E1	6","226013601E-2	2","990198135E-2	1","057443619E-1	1",2.63E+07
2,"179767132E1	9","582380950E-2	1","157773733E-1	-1","924219131E-1	2",4.42E+07
2,"181558812E1	7","372088730E-2	1","167713404E-1	-2","825679779E-1	3",1.45E+07
2,"183350188E1	2","921992540E-2	6","643331051E-2	-1","639881134E-1	1",7.93E+07
2,"185141436E1	-2","488747239E-2	6","152153015E-3	-2","152156830E-2	3",3.47E+06
2,"186933648E1	-2","838653326E-2	-3","107273579E-2	-1","689434052E-2	4",5.35E+06
2,"188726073E1	-4","257029295E-2	-6","382381916E-2	-3","677082062E-2	8",5.08E+06
2,"190517534E1	-3","215074539E-2	-6","242096424E-2	-4","119586945E-2	8",1.41E+06
2,"192309228E1	-2","150982618E-3	-5","093371868E-2	-1","275444031E-1	1",3.74E+07
2,"194100970E1	1","141682267E-2	-6","269097328E-3	-1","942520142E-1	1",9.47E+07
2,"195892724E1	4","348525405E-2	1","166522503E-2	-2","522926331E-1	2",5.63E+07
2,"197684191E1	1","134802103E-1	2","420926094E-2	-2","488965988E-1	2",7.46E+07
2,"199476446E1	9","734284878E-2	2","053809166E-2	-1","558179855E-1	1",8.49E+07
2,"201267919E1	1","418847442E-1	2","978277206E-2	-1","342887878E-1	1",9.76E+07
2,"203059667E1	1","252140850E-1	1","558518410E-2	-1","175765991E-1	1",7.25E+07
2,"204851433E1	1","284066290E-1	-7","286548615E-3	-1","555919647E-2	1",2.96E+07
2,"206643090E1	9","260812402E-2	1","422250271E-2	8","699989319E-2	1",2.79E+07
2,"208434050E1	8","458644152E-2	1","656401157E-2	9","399127960E-2	1",2.75E+07
2,"210226623E1	9","586229920E-2	4","211056232E-2	1","496772766E-1	1",8.27E+07
2,"212018419E1	6","325605512E-2	5","679202080E-2	1","304483414E-1	1",5.57E+07
2,"213810076E1	4","023611546E-2	3","925383091E-2	2","426242828E-2	6",1.22E+06
2,"215601879E1	2","638959885E-2	3","580892086E-2	3","691577911E-2	5",7.81E+06
2,"217392602E1	8","813798428E-3	-1","654577255E-2	1","494798660E-1	1",5.07E+07
2,"219185320E1	1","650545001E-2	-6","144785881E-2	1","340980530E-1	1",4.84E+07
2,"220977068E1	9","638845921E-3	-7","507824898E-2	-2","914619446E-2	8",1.11E+06
2,"222768773E1	-1","408702135E-2	-3","623473644E-2	-2","015113831E-1	2",5.23E+06
2,"224560375E1	-2","476364374E-2	1","216816902E-2	-2","885017395E-1	2",8.98E+07
2,"226351189E1	-9","633481503E-3	1","924490929E-2	-2","719459534E-1	2",7.28E+07
2,"228143993E1	-1","116004586E-2	-1","029932499E-2	-1","469774246E-1	1",4.78E+07
2,"229935766E1	1","091420650E-3	-5","660426617E-2	1","547698975E-1	1",6.48E+07
2,"231727508E1	-8","974820375E-3	-6","820285320E-2	3","402442932E-1	3",4.71E+07
2,"233519262E1	-2","747234702E-2	-3","867387772E-3	2","594785690E-1	2",6.10E+07
2,"235310936E1	-7","413816452E-2	-1","067256927E-2	7","460880280E-2	1",5.72E+06
2,"237102678E1	-6","544655561E-2	-9","508490562E-3	-6","289482117E-2	9",1.27E+06
2,"238894420E1	-3","975805640E-2	-4","137873650E-3	-3","841209412E-2	5",5.44E+06
2,"240686205E1	-1","792266965E-2	-1","064670086E-2	2","574920654E-4	2",8.48E+05
2,"242477581E1	1","152199507E-2	-4","456019402E-2	-5","686855316E-2	7",3.16E+06
2,"244270000E1	5","822700262E-2	-7","403397560E-2	-9","495353699E-2	1",3.37E+07
2,"246061425E1	2","123036981E-2	-1","002132893E-1	4","391956329E-2	1",1.15E+07
2,"247853148E1	2","208831906E-2	-8","692133427E-2	4","950714111E-2	1",2.44E+06
2,"249643523E1	2","746519446E-2	-2","876591682E-2	-1","071987152E-1	1",1.43E+07
2,"251436309E1	1","481339335E-2	-1","090300083E-2	-9","296989441E-2	9",4.77E+06
2,"253228624E1	1","437446475E-2	-4","344630241E-2	1","870546341E-1	1",9.26E+07
2,"255020116E1	9","205758572E-3	-4","640722275E-2	3","070726395E-1	3",1.07E+07
2,"256811803E1	-3","609091043E-3	-2","364003658E-2	8","474254608E-2	8",8.05E+06
2,"258602251E1	-3","973850608E-2	1","651883125E-3	-2","951755524E-1	2",9.78E+07
2,"260395275E1	-5","079430342E-2	8","840560913E-4	-3","668956757E-1	3",7.04E+07
2,"262187084E1	-6","610751152E-2	-3","115427494E-2	-1","431961060E-1	1",6.08E+07
2,"263978765E1	-5","988788605E-2	-9","497046471E-2	3","317165375E-2	1",1.71E+07
2,"265770501E1	-6","905588508E-2	-8","083939552E-2	-3","366947174E-2	1",1.15E+07
2,"267562255E1	-4","042729735E-2	-3","059124947E-2	-8","131122589E-2	9",5.82E+06
2,"269353979E1	-1","625052094E-2	1","341342926E-2	2","309226990E-2	3",1.26E+06
2,"271145696E1	1","396834850E-3	3","078055382E-2	1","516313553E-1	1",5.47E+07
2,"272937444E1	2","429544926E-2	1","566898823E-2	2","133045197E-1	2",1.53E+07
2,"274729174E1	5","557453632E-2	6","258022785E-2	1","096162796E-1	1",3.79E+07
2,"276520946E1	8","582052588E-2	1","166558266E-1	-1","185998917E-1	1",8.72E+07
2,"278312664E1	4","252079129E-2	1","191885471E-1	-2","318458557E-1	2",6.41E+07
2,"280104418E1	4","252883792E-2	1","018878222E-1	-1","980676651E-1	2",2.68E+07
2,"281896136E1	7","093277574E-2	1","978337765E-2	-1","037359238E-1	1",2.72E+07
2,"283687902E1	6","906527281E-2	-8","865475655E-2	4","434585571E-4	1",1.24E+07
2,"285479595E1	4","651778936E-2	-1","454792023E-1	9","521389008E-2	1",8.00E+07
2,"287270116E1	5","194431543E-2	-1","159512997E-1	9","153938293E-2	1",5.66E+07
2,"289063061E1	8","579754829E-2	-4","501152039E-2	-4","562759399E-2	1",7.09E+06
2,"290854656E1	1","173260510E-1	8","666515350E-4	-2","031650543E-1	2",3.46E+07
2,"292646514E1	9","818279743E-2	1","031136513E-2	-2","272958755E-1	2",4.78E+07
2,"294437047E1	1","077858508E-1	3","751385212E-2	-1","048460007E-1	1",5.50E+07
2,"296230053E1	4","723584652E-2	3","955650330E-2	2","314281464E-2	6",5.81E+06
2,"298021795E1	-1","192131639E-2	-1","105630398E-2	6","505393982E-2	6",7.06E+06
2,"299812377E1	-1","743844151E-2	7","315039635E-3	1","121015549E-1	1",1.37E+07
2,"301604912E1	-2","625107765E-3	7","092893124E-2	1","323451996E-1	1",5.02E+07
2,"303397326E1	3","511562943E-2	1","689149141E-1	-6","677532196E-2	1",8.50E+07
2,"305188738E1	4","206153750E-2	1","633627415E-1	-2","192649841E-1	2",7.66E+07
2,"306980443E1	8","709877729E-3	3","734552860E-2	-6","403160095E-2	7",4.64E+06
2,"308772179E1	-2","331021428E-2	-9","163224697E-2	1","682300568E-1	1",9.30E+07
2,"310563940E1	-1","025108993E-1	-1","701360941E-1	7","282543182E-2	2",1.16E+07
2,"312355694E1	-1","270986199E-1	-6","196880341E-2	-3","650932312E-1	3",9.15E+07
2,"314147051E1	-9","023389220E-2	6","717216969E-2	-8","721275330E-1	8",7.94E+07
2,"315939458E1	1","157980114E-1	1","756486893E-1	-8","108997345E-1	8",3.77E+07
2,"317731200E1	2","769123018E-1	2","258585691E-1	-2","158012390E-1	4",1.74E+07
2,"319522600E1	3","223450482E-1	2","093821764E-1	1","458644867E-1	4",1.11E+07
2,"321314306E1	2","447308749E-1	1","840233803E-1	2","513418198E-1	3",9.61E+07
2,"323105926E1	1","239161342E-1	9","404218197E-2	3","422069550E-1	3",7.59E+07
2,"324897814E1	5","127641559E-2	2","145183086E-2	5","111894608E-1	5",1.42E+07
2,"326689562E1	3","760111332E-2	-1","544845104E-2	4","912185669E-1	4",9.29E+07
2,"328481261E1	5","975857377E-2	-1","045179367E-2	3","861150742E-1	3",9.09E+07
2,"330273040E1	1","503423452E-1	-2","058875561E-2	3","100271225E-1	3",4.52E+07
2,"332063140E1	1","931109577E-1	-1","624548435E-2	2","628746033E-1	3",2.66E+07
2,"333856792E1	1","108287722E-1	-3","280711174E-2	1","825761795E-1	2",1.61E+07
2,"335648253E1	7","610321045E-3	-4","926550388E-2	1","743221283E-2	5",2.81E+06
2,"337439959E1	-7","487492263E-2	-6","021845341E-2	-2","140760422E-1	2",3.47E+07
2,"339231713E1	-1","209985018E-1	-7","744228840E-2	-3","229942322E-1	3",5.35E+07
2,"341022143E1	-1","178110242E-1	-9","176766872E-2	-3","312482834E-1	3",6.34E+07
2,"342814800E1	-1","087372303E-1	-7","057154179E-2	-3","308267593E-1	3",5.53E+07
2,"344607226E1	-8","436731994E-2	-3","167593479E-2	-3","116769791E-1	3",2.44E+07
2,"346398418E1	-7","969810069E-2	-1","468777657E-3	-2","402257919E-1	2",5.31E+07
2,"348190673E1	-7","127223909E-2	1","049029827E-2	-1","407365799E-1	1",5.81E+07
2,"349982097E1	-2","761191130E-2	1","607882977E-2	-1","026573181E-1	1",7.51E+06
2,"351773870E1	1","572816074E-2	-1","992344856E-3	-7","958030701E-2	8",1.14E+06
2,"353565600E1	4","054144025E-3	-3","811955452E-2	-1","774501801E-2	4",2.24E+06
2,"355357342E1	-5","483716726E-3	-3","467977047E-2	8","704757690E-2	9",3.86E+06
2,"357149022E1	-6","572096050E-2	-1","970314980E-2	7","952404022E-2	1",5.03E+06
2,"358940783E1	-1","030135900E-1	-2","778720856E-2	-1","473274231E-1	1",8.19E+07
2,"360732543E1	-1","408555061E-1	-7","016110420E-2	-4","514760971E-1	4",7.81E+07
2,"362524285E1	-1","884736121E-1	-1","088620424E-1	-4","554204941E-1	5",4.76E+06
2,"364315941E1	-2","013667524E-1	-1","115369797E-1	-3","634481430E-1	4",3.02E+07
2,"366107634E1	-1","411719173E-1	-8","065629005E-2	-3","765449524E-1	4",1.01E+07
2,"367899560E1	-8","116039634E-2	-7","383430004E-2	-5","282907486E-1	5",3.96E+07
2,"369691234E1	-1","072421968E-1	-8","837807178E-2	-6","561183929E-1	6",7.07E+07
2,"371482928E1	-1","043150723E-1	-1","086640358E-1	-6","607503891E-1	6",7.77E+07
2,"373273437E1	-8","374051750E-2	-1","141499281E-1	-6","325817108E-1	6",4.82E+07
2,"375066326E1	-4","896529019E-2	-1","297999620E-1	-5","941467285E-1	6",1.01E+07
2,"376856951E1	8","146911860E-4	-1","452218294E-1	-5","324172974E-1	5",5.19E+07
2,"378649828E1	7","254002988E-2	-1","149146557E-1	-4","648771286E-1	4",8.43E+07
2,"380441625E1	1","168108582E-1	-7","023310661E-2	-4","157533646E-1	4",3.75E+07
2,"382232989E1	1","038174108E-1	-5","524885654E-2	-5","337829590E-1	5",4.66E+07
2,"384025103E1	7","813470811E-2	-7","252311707E-2	-6","371173859E-1	6",4.60E+07
2,"385816796E1	8","721856028E-2	-1","034673452E-1	-6","358623505E-1	6",5.01E+07
2,"387608538E1	1","063428074E-1	-1","231570244E-1	-6","914949417E-1	7",1.04E+07
2,"389400243E1	9","582607448E-2	-8","575952053E-2	-8","043870926E-1	8",1.46E+07
2,"391192028E1	1","010088325E-1	-1","041696072E-1	-8","691759109E-1	8",8.12E+07
2,"392983739E1	9","271244705E-2	-1","244295835E-1	-8","919696808E-1	9",5.37E+06
2,"394775463E1	5","708599091E-2	-1","911053658E-1	-8","391208649E-1	8",6.25E+07
2,"396567217E1	3","704091907E-2	-2","261232138E-1	-8","148527145E-1	8",4.65E+07
2,"398358965E1	3","846602142E-2	-2","267785072E-1	-7","811050415E-1	8",1.43E+07
2,"400150658E1	5","087102950E-2	-2","053802013E-1	-7","614622116E-1	7",9.03E+07
2,"401942425E1	5","503745377E-2	-1","903930902E-1	-7","845792770E-1	8",9.22E+06
2,"403734154E1	1","142527163E-2	-2","007769346E-1	-8","501214981E-1	8",7.36E+07
2,"405525878E1	1","913250983E-2	-1","509022713E-1	-9","165620804E-1	9",2.91E+07
2,"407317260E1	2","599258721E-2	-1","476960182E-1	-9","354877472E-1	9",4.74E+07
2,"409109655E1	3","168389201E-2	-1","425291300E-1	-9","021387100E-1	9",1.39E+07
2,"410901049E1	4","037304223E-2	-1","537008286E-1	-8","445501328E-1	8",5.94E+07
2,"412692864E1	6","427371502E-2	-1","308349371E-1	-9","009475708E-1	9",1.27E+07
2,"414484142E1	1","077590436E-1	-8","858478069E-2	-1","028546333E0	1",3.80E+07
2,"416276122E1	1","069844514E-1	-5","884945393E-2	-1","051908493E0	1",5.90E+07
2,"418068236E1	6","754186004E-2	-7","988917828E-2	-9","703416824E-1	9",7.60E+07
2,"419859789E1	5","824789405E-2	-1","356551647E-1	-8","844451904E-1	8",9.67E+07
2,"421650139E1	3","055830300E-2	-1","680357456E-1	-9","221477509E-1	9",3.78E+07
2,"423443236E1	1","660972834E-2	-2","098686695E-1	-9","790229797E-1	1",1.40E+06
2,"425234954E1	-5","867898464E-3	-2","404886484E-1	-9","357767105E-1	9",6.62E+07
2,"427026708E1	-5","336061120E-3	-2","480939627E-1	-8","779277802E-1	9",1.23E+07
2,"428818389E1	7","937639952E-3	-2","131255865E-1	-9","052791595E-1	9",3.01E+07
2,"430608996E1	5","113615096E-2	-1","784093380E-1	-1","089669228E0	1",1.05E+08
2,"432401897E1	6","174214184E-2	-1","767363548E-1	-1","189653397E0	1",2.04E+08
2,"434193645E1	3","288175911E-2	-2","064636946E-1	-1","071411133E0	1",9.16E+07
2,"435984997E1	1","971307397E-2	-2","374989986E-1	-9","188117981E-1	9",4.92E+07
2,"437777398E1	2","185210586E-3	-2","085303068E-1	-9","179716110E-1	9",4.14E+07
2,"439568786E1	-7","627412677E-3	-1","447256804E-1	-1","173526764E0	1",1.82E+08
2,"441360601E1	-2","364704013E-2	-9","224808216E-2	-1","349006653E0	1",3.52E+08
2,"443152263E1	-3","803399205E-2	-1","339554787E-1	-1","273400307E0	1",2.81E+08
2,"444944036E1	-8","620643616E-2	-1","908916235E-1	-1","064435959E0	1",8.48E+07
2,"446734691E1	-8","022293448E-2	-2","027324438E-1	-1","017055511E0	1",4.02E+07
2,"448527520E1	-7","408472896E-2	-1","733425856E-1	-1","102581978E0	1",1.19E+08
2,"450319213E1	-4","701437056E-2	-1","741831303E-1	-1","098534584E0	1",1.13E+08
2,"452110967E1	-1","210008562E-2	-2","057797909E-1	-9","096794128E-1	9",3.27E+07
2,"453902709E1	-9","147986770E-3	-2","829288244E-1	-6","958332062E-1	7",5.12E+07
2,"455694286E1	-2","397291362E-2	-2","777152061E-1	-6","615591049E-1	7",1.79E+07
2,"457485790E1	2","593114972E-2	-1","990224123E-1	-9","265623093E-1	9",4.81E+07
2,"459278210E1	-1","044508815E-2	-1","253212690E-1	-1","070586205E0	1",7.79E+07
2,"461069597E1	-2","929309011E-2	-1","227121353E-1	-1","201889038E0	1",2.08E+08
2,"462861352E1	-1","445259154E-2	-1","171586514E-1	-1","211200714E0	1",2.17E+08
2,"464653057E1	-1","557379961E-3	-1","350101233E-1	-1","234435081E0	1",2.42E+08
2,"466443511E1	1","135914028E-2	-1","368191242E-1	-1","329755783E0	1",3.37E+08
2,"468236571E1	6","600961089E-2	-1","152261496E-1	-1","316594124E0	1",3.23E+08
2,"470028313E1	7","720994204E-2	-1","651712656E-1	-9","894485474E-1	1",6.11E+06
2,"471819988E1	8","655048162E-2	-2","147468328E-1	-5","863332748E-1	6",3.04E+07
2,"473611760E1	1","012703702E-1	-2","235213518E-1	-4","491167068E-1	5",1.18E+07
2,"475403490E1	7","794050872E-2	-1","785920858E-1	-6","385231018E-1	6",6.76E+07
2,"477195238E1	2","929872274E-2	-1","204921007E-1	-9","328155518E-1	9",4.10E+07
2,"478985680E1	-3","624697030E-2	-7","873415947E-2	-1","179300308E0	1",1.82E+08
2,"480777135E1	2","779835463E-2	-8","789634705E-2	-1","145650864E0	1",1.49E+08
2,"482570739E1	2","988952398E-2	-1","454750299E-1	-1","144790649E0	1",1.54E+08
2,"484362176E1	3","466698527E-2	-2","290982008E-1	-1","164196968E0	1",1.87E+08
2,"486153844E1	3","389576077E-2	-2","607516050E-1	-1","026484489E0	1",5.96E+07
2,"487945556E1	1","959697902E-2	-2","553131580E-1	-9","174499512E-1	9",5.25E+07
2,"489737243E1	5","169332027E-3	-2","763264179E-1	-8","326444626E-1	8",7.73E+07
2,"491529204E1	-8","616879582E-3	-3","008036613E-1	-6","809835434E-1	7",4.45E+07
2,"493320769E1	1","188370585E-2	-2","743650675E-1	-5","944871902E-1	6",5.49E+07
2,"495112566E1	3","609769046E-2	-2","235919237E-1	-7","113981247E-1	7",4.66E+07
2,"496903222E1	8","073619008E-2	-1","679733992E-1	-1","023485184E0	1",4.03E+07
2,"498695696E1	1","118098497E-1	-1","166107655E-1	-1","320671082E0	1",3.31E+08
2,"500488036E1	1","265662909E-1	-8","955812454E-2	-1","475751877E0	1",4.84E+08
2,"502279455E1	1","234880388E-1	-1","106308699E-1	-1","513563156E0	1",5.23E+08
2,"504071221E1	7","574986666E-2	-1","748020649E-1	-1","357627869E0	1",3.71E+08
2,"505862963E1	7","527896017E-2	-2","684649229E-1	-1","121790886E0	1",1.56E+08
2,"507654650E1	6","452825665E-2	-3","444430828E-1	-8","707065582E-1	9",3.86E+07
2,"509446361E1	1","504085958E-1	-3","415228128E-1	-8","819999695E-1	9",5.77E+07
2,"511238128E1	2","022297978E-1	-3","311467171E-1	-1","008025169E0	1",8.01E+07
2,"513028557E1	1","974474788E-1	-2","924433947E-1	-9","714603424E-1	1",3.36E+07
2,"514821581E1	1","696065366E-1	-2","491414547E-1	-9","676132202E-1	1",1.35E+07
2,"516613317E1	1","063491255E-1	-2","166821957E-1	-1","011419296E0	1",3.98E+07
2,"518405071E1	7","130333781E-2	-1","722025871E-1	-1","022024155E0	1",3.89E+07
2,"520196782E1	8","266378939E-2	-1","533784866E-1	-1","027565956E0	1",4.22E+07
2,"521988482E1	9","616859257E-2	-1","635464430E-1	-1","061713219E0	1",7.85E+07
2,"523780254E1	6","873445213E-2	-1","676667929E-1	-1","072099686E0	1",8.73E+07
2,"525571990E1	3","208787739E-2	-1","942948103E-1	-1","039772034E0	1",5.83E+07
2,"527363768E1	7","480800152E-3	-2","004978657E-1	-9","597463608E-1	9",8.05E+07
2,"529155663E1	-1","501816511E-2	-1","969771385E-1	-8","942899704E-1	9",1.58E+07
2,"530946844E1	1","392146945E-2	-2","035344839E-1	-7","813920975E-1	8",7.59E+06
2,"532739196E1	1","446443796E-2	-2","228505611E-1	-7","344455719E-1	7",6.76E+07
2,"534530694E1	6","219267845E-3	-2","343995571E-1	-7","301111221E-1	7",6.68E+07
2,"536322356E1	3","748774529E-3	-2","102290392E-1	-8","155117035E-1	8",4.22E+07
2,"538112786E1	1","795589924E-4	-1","612788439E-1	-1","005542755E0	1",1.84E+07
2,"539905590E1	-3","400436044E-2	-1","460274458E-1	-1","190803528E0	1",2.00E+08
2,"541697820E1	9","274512529E-3	-1","605983973E-1	-1","258490562E0	1",2.69E+08
2,"543489269E1	5","138106644E-2	-1","869312525E-1	-1","106520653E0	1",1.23E+08
2,"545281029E1	1","005459279E-1	-1","955068111E-1	-1","016473770E0	1",4.00E+07
2,"547072753E1	9","250989556E-2	-2","092672586E-1	-1","011982918E0	1",3.75E+07
2,"548864525E1	5","783028901E-2	-2","521638870E-1	-9","363222122E-1	9",7.14E+07
2,"550656164E1	2","897590399E-2	-2","889522314E-1	-7","945623398E-1	8",4.60E+07
2,"552447967E1	4","991568625E-2	-2","864829302E-1	-7","138137817E-1	7",7.08E+07
2,"554239684E1	8","325085044E-3	-2","901037931E-1	-7","180576324E-1	7",7.45E+07
2,"556031457E1	-4","247494042E-2	-2","686674595E-1	-9","452648163E-1	9",8.36E+07
2,"557823107E1	-1","534926891E-2	-1","905834675E-1	-1","192035675E0	1",2.07E+08
2,"559614892E1	-9","022340178E-3	-1","208412647E-1	-1","290814400E0	1",2.96E+08
2,"561406560E1	-8","406296372E-3	-8","032333851E-2	-1","299547195E0	1",3.02E+08
2,"563198376E1	2","624705434E-3	-9","653985500E-2	-1","176426888E0	1",1.80E+08
2,"564990062E1	-1","717628539E-2	-1","199090481E-1	-1","039401054E0	1",4.64E+07
2,"566781786E1	6","492093205E-2	-1","847751141E-1	-8","839807510E-1	9",5.42E+06
2,"568573272E1	1","933266222E-2	-1","924937963E-1	-8","604669571E-1	8",8.19E+07
2,"570365227E1	-4","344291985E-2	-2","021605968E-1	-8","188171387E-1	8",4.45E+07
2,"572156963E1	-6","304337084E-2	-2","079861164E-1	-7","278375626E-1	7",5.96E+07
2,"573949047E1	-1","306341588E-2	-1","631252766E-1	-7","928304672E-1	8",9.54E+06
2,"575740447E1	7","099111378E-2	-1","073638201E-1	-9","916782379E-1	9",1.00E+08
2,"577532232E1	7","228754461E-2	-1","156550646E-1	-1","195259094E0	1",2.03E+08
2,"579322576E1	2","165171504E-2	-9","549534321E-2	-1","232835770E0	1",2.37E+08
2,"581115636E1	6","947599351E-2	-1","037476063E-1	-1","189152718E0	1",1.96E+08
2,"582907397E1	6","871864200E-2	-1","206617355E-1	-1","169574738E0	1",1.78E+08
2,"584698827E1	6","915932894E-2	-1","469606161E-1	-1","146077156E0	1",1.58E+08
2,"586491137E1	6","603759527E-2	-1","779938936E-1	-1","009240150E0	1",2.69E+07
2,"588282604E1	1","550948620E-2	-2","086285353E-1	-8","240222931E-1	8",5.02E+07
2,"590074303E1	2","629460394E-2	-2","043867111E-1	-8","874521255E-1	9",1.11E+07
2,"591866070E1	4","339340329E-2	-1","708116531E-1	-9","311685562E-1	9",4.77E+07
2,"593657751E1	1","332052052E-2	-2","098625898E-1	-9","595403671E-1	9",8.23E+07
2,"595449511E1	9","572029114E-3	-1","989458799E-1	-1","103061676E0	1",1.21E+08
2,"597241228E1	-1","132488251E-4	-2","128739357E-1	-1","150963783E0	1",1.70E+08
2,"599033007E1	3","413817286E-2	-1","836472750E-1	-1","084586143E0	1",1.01E+08
2,"600824663E1	8","115501702E-2	-1","733455658E-1	-1","180870056E0	1",1.96E+08
2,"602615117E1	1","220508218E-1	-1","376200914E-1	-1","143563271E0	1",1.58E+08
2,"604408123E1	1","397558749E-1	-1","298508644E-1	-1","087807655E0	1",1.04E+08
2,"606199944E1	1","718618572E-1	-1","076995134E-1	-1","069129944E0	1",8.82E+07
2,"607991601E1	1","543953568E-1	-1","161760092E-1	-1","012505531E0	1",3.08E+07
2,"609783367E1	1","170561612E-1	-1","216170788E-1	-9","939689636E-1	1",8.20E+06
2,"611574535E1	8","345219493E-2	-1","063219309E-1	-1","047414780E0	1",5.61E+07
2,"613366485E1	8","663198352E-2	-1","041710377E-1	-1","005396843E0	1",1.45E+07
2,"615157232E1	9","943923354E-2	-1","075913906E-1	-9","016466141E-1	9",1.35E+07
2,"616950579E1	7","016885281E-2	-8","539569378E-2	-8","680076599E-1	8",7.50E+07
2,"618741961E1	3","866136074E-2	-4","972541332E-2	-9","209184647E-1	9",2.31E+07
2,"620532445E1	2","172547579E-2	-7","309520245E-2	-9","113826752E-1	9",1.46E+07
2,"622325432E1	2","411553264E-2	-1","126204729E-1	-9","493761063E-1	9",5.63E+07
2,"624117180E1	3","019309044E-2	-8","674490452E-2	-1","054022789E0	1",5.80E+07
2,"625908928E1	3","881013393E-2	-7","157135010E-2	-1","148488998E0	1",1.51E+08
2,"627700707E1	3","479915857E-2	-8","927357197E-2	-1","172628403E0	1",1.77E+08
2,"629491070E1	4","238229990E-2	-1","015571356E-1	-1","069004059E0	1",7.47E+07
2,"631284087E1	7","176789641E-2	-1","368095875E-1	-9","465646744E-1	9",5.91E+07
2,"633075829E1	7","673591375E-3	-2","092599869E-1	-7","375602722E-1	7",6.67E+07
2,"634867577E1	5","546450615E-3	-2","232304811E-1	-7","090072632E-1	7",4.33E+07
2,"636659258E1	3","441417217E-2	-1","929486990E-1	-8","514938354E-1	8",7.38E+07
2,"638451043E1	8","168473840E-2	-1","405797005E-1	-9","750347137E-1	9",8.85E+07
2,"640242779E1	1","152736694E-1	-1","028425694E-1	-1","136308670E0	1",1.47E+08
2,"642034490E1	9","666280448E-2	-9","023475647E-2	-1","184020042E0	1",1.91E+08
2,"643826128E1	7","088881731E-2	-1","218330860E-1	-1","098377228E0	1",1.07E+08
2,"645617986E1	6","526878476E-2	-1","469492912E-1	-9","943141937E-1	1",7.23E+06
2,"647409655E1	6","061041355E-2	-1","645982265E-1	-9","611778259E-1	9",7.71E+07
2,"649201415E1	4","021432996E-2	-1","682840586E-1	-9","661874771E-1	9",8.16E+07
2,"650993102E1	1","911097765E-2	-1","426852942E-1	-9","569568634E-1	9",6.77E+07
2,"652783562E1	2","324607968E-2	-1","311691999E-1	-9","046573639E-1	9",1.44E+07
2,"654576586E1	1","570490003E-2	-1","140595675E-1	-9","570865631E-1	9",6.40E+07
2,"656368352E1	2","667060494E-2	-1","073485613E-1	-1","058524132E0	1",6.43E+07
2,"658159698E1	1","160591841E-2	-1","222909689E-1	-9","458761215E-1	9",5.38E+07
2,"659950786E1	-1","307079196E-2	-1","428833008E-1	-7","654829025E-1	7",7.88E+07
2,"661742211E1	-7","875084877E-3	-1","585515738E-1	-6","901760101E-1	7",8.20E+06
2,"663535271E1	-2","299323678E-2	-1","471476555E-1	-7","711381912E-1	7",8.54E+07
2,"665326946E1	-2","132588625E-2	-1","375541687E-1	-8","191022873E-1	8",3.08E+07
2,"667118712E1	-1","584047079E-2	-1","188045740E-1	-7","713165283E-1	7",8.06E+07
2,"668910442E1	1","055097580E-2	-1","099766493E-1	-7","329874039E-1	7",4.13E+07
2,"670702202E1	3","327354789E-2	-7","800269127E-2	-7","805194855E-1	7",8.51E+07
2,"672493865E1	5","536845326E-2	-7","533657551E-2	-8","233060837E-1	8",2.86E+07
2,"674285613E1	4","373145103E-2	-9","615564346E-2	-8","374586105E-1	8",4.41E+07
2,"676077361E1	1","782009006E-2	-1","068326235E-1	-8","181991577E-1	8",2.53E+07
2,"677869121E1	2","464824915E-2	-9","896564484E-2	-8","036518097E-1	8",1.01E+07
2,"679660778E1	4","563692212E-2	-9","666085243E-2	-7","794122696E-1	7",8.67E+07
2,"681452556E1	4","278501868E-2	-1","083518267E-1	-8","078708649E-1	8",1.62E+07
2,"683244280E1	-2","397239208E-3	-1","245009899E-1	-8","125438690E-1	8",2.20E+07
2,"685036010E1	1","588052511E-2	-1","335264444E-1	-7","743740082E-1	7",8.60E+07
2,"686827550E1	3","034663200E-2	-1","167539358E-1	-7","316932678E-1	7",4.16E+07
2,"688619384E1	4","804134369E-4	-1","001542807E-1	-6","698808670E-1	6",7.73E+07
2,"690411394E1	-2","793994546E-2	-1","279481649E-1	-6","133069992E-1	6",2.71E+07
2,"692202953E1	-3","248447180E-2	-1","327259541E-1	-6","127014160E-1	6",2.78E+07
2,"693993841E1	-5","643039942E-3	-1","116651297E-1	-6","743917465E-1	6",8.36E+07
