"Time (s)","Linear Acceleration x (m/s^2)","Linear Acceleration y (m/s^2)","Linear Acceleration z (m/s^2)","Absolute acceleration (m/s^2)"
5.652623700E-2,-1.121847272E0,-2.179943323E0,2.713985443E-1,2.466647799E0
7.443785900E-2,-1.112142444E0,-2.179889679E0,2.899122238E-1,2.464311045E0
9.235106800E-2,-1.092834234E0,-2.184697628E0,3.090410233E-1,2.462254403E0
1.102662930E-1,-1.073945284E0,-2.203762054E0,3.473377228E-1,2.475998619E0
1.281796250E-1,-1.078757048E0,-2.198836803E0,3.712339401E-1,2.477178777E0
1.460941780E-1,-1.083522320E0,-2.194644928E0,3.855876923E-1,2.477733813E0
1.640075090E-1,-1.078606009E0,-2.189761162E0,3.951187134E-1,2.472764378E0
1.819226110E-1,-1.101641536E0,-2.194459677E0,4.189882278E-1,2.490947306E0
1.998309990E-1,-1.130451560E0,-2.194208860E0,4.189376831E-1,2.503593824E0
2.177505570E-1,-1.135286331E0,-2.213078022E0,3.949480057E-1,2.518446607E0
2.356635830E-1,-1.121049166E0,-2.212983131E0,3.662242889E-1,2.507621543E0
2.535796620E-1,-1.140823126E0,-2.212679148E0,3.182964325E-1,2.509728877E0
2.714910400E-1,-1.141041756E0,-2.183603525E0,3.182325363E-1,2.484224746E0
2.893937520E-1,-1.116965055E0,-2.197736979E0,2.798738480E-1,2.481126384E0
3.073214890E-1,-1.078477263E0,-2.201865911E0,2.750482559E-1,2.467180221E0
3.252336000E-1,-1.073326468E0,-2.211259127E0,2.271032333E-1,2.468455491E0
3.431483960E-1,-1.049041748E0,-2.206325769E0,2.748794556E-1,2.458438672E0
3.610630100E-1,-1.034336686E0,-2.225115776E0,2.603921890E-1,2.467548721E0
3.789681630E-1,-1.043602943E0,-2.219987631E0,2.937679291E-1,2.470577216E0
3.968913220E-1,-1.071987271E0,-2.214929342E0,3.319454193E-1,2.482993448E0
4.148046530E-1,-1.086315393E0,-2.186478376E0,3.510007858E-1,2.466570570E0
4.327194500E-1,-1.129601240E0,-2.171824932E0,3.318099976E-1,2.470408948E0
4.506325990E-1,-1.158517122E0,-2.161608458E0,3.227014542E-1,2.473630788E0
4.685475790E-1,-1.187613964E0,-2.122806549E0,3.417625427E-1,2.456325754E0
4.864609110E-1,-1.215671778E0,-2.107901573E0,3.464050293E-1,2.457865610E0
5.043754020E-1,-1.220312715E0,-2.116941214E0,3.223257065E-1,2.464649485E0
5.222927620E-1,-1.178018570E0,-2.106929064E0,3.270235062E-1,2.435943802E0
5.402035300E-1,-1.187448144E0,-2.116095543E0,3.364772797E-1,2.449716392E0
5.581172910E-1,-1.205941439E0,-2.115520239E0,3.602552414E-1,2.461606076E0
5.760315990E-1,-1.167217612E0,-2.139073372E0,3.601083755E-1,2.463272191E0
5.939450520E-1,-1.123981595E0,-2.167539120E0,3.642139435E-1,2.468645835E0
6.118453230E-1,-1.105320811E0,-2.186208725E0,3.401556015E-1,2.473246554E0
6.297760490E-1,-1.109761357E0,-2.195347548E0,3.166751862E-1,2.480202471E0
6.476879170E-1,-1.056987166E0,-2.213595390E0,3.016300201E-1,2.471478726E0
6.656013100E-1,-1.018430352E0,-2.198535204E0,3.444938660E-1,2.447331904E0
6.835164110E-1,-9.943844676E-1,-2.207437038E0,3.724279404E-1,2.449547166E0
7.014282170E-1,-9.848592281E-1,-2.221253872E0,3.531570435E-1,2.455328157E0
7.193435640E-1,-9.850283861E-1,-2.201522827E0,3.578176498E-1,2.438240585E0
7.372581780E-1,-1.037792206E0,-2.205640078E0,3.104076385E-1,2.457277704E0
7.551726080E-1,-1.023605466E0,-2.195439577E0,2.959165573E-1,2.440346224E0
7.730860620E-1,-1.119220614E0,-2.204923868E0,2.759933472E-1,2.488074833E0
7.909886510E-1,-1.133312702E0,-2.194707632E0,2.476844788E-1,2.482435673E0
8.089109560E-1,-1.133065104E0,-2.165381193E0,2.618598938E-1,2.457902123E0
8.268317340E-1,-1.142417192E0,-2.160079479E0,2.760620117E-1,2.459119890E0
8.447422570E-1,-1.165994644E0,-2.169176102E0,2.860708237E-1,2.479254926E0
8.626567490E-1,-1.170394063E0,-2.182819366E0,2.619190216E-1,2.490607200E0
8.805700810E-1,-1.140972614E0,-2.182252169E0,3.041648865E-1,2.481241486E0
8.984853660E-1,-1.140192986E0,-2.152817249E0,3.379888535E-1,2.459450877E0
9.163984540E-1,-1.138962984E0,-2.147503614E0,3.658971786E-1,2.458228874E0
9.343110530E-1,-1.109594703E0,-2.166213989E0,3.896379471E-1,2.464853176E0
9.522287190E-1,-1.061352491E0,-2.160620213E0,4.079360962E-1,2.441548827E0
9.701416840E-1,-1.080107927E0,-2.169435501E0,4.316301346E-1,2.461582438E0
9.880549550E-1,-1.108623385E0,-2.154237032E0,4.361839294E-1,2.461714732E0
1.005969752E0,-1.108533978E0,-2.139230490E0,4.120836258E-1,2.444374682E0
1.023882534E0,-1.103872895E0,-2.152808189E0,3.640499115E-1,2.446558973E0
1.041798185E0,-1.122878551E0,-2.166308165E0,3.398933411E-1,2.463589817E0
1.059710968E0,-1.160873294E0,-2.151073933E0,3.210973740E-1,2.465329469E0
1.077625460E0,-1.127881408E0,-2.150111675E0,3.160629272E-1,2.448467370E0
1.095539158E0,-1.123013139E0,-2.168264627E0,2.679529190E-1,2.456487079E0
1.113454381E0,-1.108353138E0,-2.186426640E0,2.389602661E-1,2.462927148E0
1.131367531E0,-1.107835412E0,-2.185586452E0,2.572345734E-1,2.463789169E0
1.149282022E0,-1.073786974E0,-2.160260677E0,2.761135101E-1,2.428164601E0
1.167195598E0,-1.054058790E0,-2.173764944E0,2.949752808E-1,2.433783964E0
1.185110639E0,-1.058107972E0,-2.158456326E0,2.946510315E-1,2.421847522E0
1.203022872E0,-1.057480335E0,-2.128582716E0,3.283872604E-1,2.399368090E0
1.220940476E0,-1.051907420E0,-2.127511978E0,3.567428589E-1,2.400017064E0
1.238850513E0,-1.070595026E0,-2.131841183E0,3.845453262E-1,2.416359999E0
1.256766042E0,-1.079584122E0,-2.145078659E0,3.650560379E-1,2.429018370E0
1.274681326E0,-1.102586150E0,-2.143912554E0,3.790874481E-1,2.440443515E0
1.292594963E0,-1.107033134E0,-2.142914295E0,3.883733749E-1,2.443038664E0
1.310508173E0,-1.130655050E0,-2.166416407E0,4.072275162E-1,2.477412993E0
1.328423214E0,-1.135073662E0,-2.189450979E0,3.830356598E-1,2.495757225E0
1.346336485E0,-1.101127028E0,-2.197426558E0,3.582115173E-1,2.483843735E0
1.364249450E0,-1.134349227E0,-2.196864843E0,3.489208221E-1,2.496939937E0
1.382165956E0,-1.143151164E0,-2.152050018E0,3.533325195E-1,2.462307400E0
1.400079715E0,-1.118899822E0,-2.160651445E0,3.291273117E-1,2.455336284E0
1.417993047E0,-1.099735975E0,-2.149939775E0,2.904891968E-1,2.432291970E0
1.435907417E0,-1.099175215E0,-2.129568338E0,2.949066162E-1,2.414584306E0
1.453819894E0,-1.108134151E0,-2.123536825E0,2.849569321E-1,2.412171303E0
1.471736888E0,-1.102808714E0,-2.098401546E0,2.654561996E-1,2.385360162E0
1.489649365E0,-1.092864275E0,-2.087660789E0,2.651252747E-1,2.371280520E0
1.507564101E0,-1.082632780E0,-2.086466074E0,2.647542953E-1,2.365487107E0
1.525477006E0,-1.067525864E0,-2.080409765E0,3.026399612E-1,2.357818315E0
1.543392656E0,-1.043114901E0,-2.107778311E0,3.112277985E-1,2.372273350E0
1.561305744E0,-1.061704278E0,-2.101740122E0,3.497390747E-1,2.380513586E0
1.579220297E0,-1.069955587E0,-2.105154514E0,3.684616089E-1,2.390030218E0
1.597133873E0,-1.059894323E0,-2.123095512E0,3.914403915E-1,2.405023100E0
1.615049219E0,-1.063858390E0,-2.126533031E0,4.005861282E-1,2.411308079E0
1.632962550E0,-1.087149143E0,-2.134821892E0,4.055814743E-1,2.429784785E0
1.650876798E0,-1.100892782E0,-2.158097029E0,4.141778946E-1,2.457822417E0
1.668778412E0,-1.104965687E0,-2.156798840E0,3.808765411E-1,2.453119920E0
1.686705415E0,-1.104659081E0,-2.174541712E0,3.703308105E-1,2.466991741E0
1.704617587E0,-1.089403152E0,-2.177423954E0,3.268365860E-1,2.456582272E0
1.722534704E0,-1.079114914E0,-2.161672115E0,3.168420792E-1,2.436740494E0
1.740446753E0,-1.087762952E0,-2.155228615E0,3.115453720E-1,2.434193735E0
1.758359902E0,-1.072510839E0,-2.153712988E0,3.302145004E-1,2.428538810E0
1.776277019E0,-1.047919035E0,-2.171280384E0,3.195858002E-1,2.432021360E0
1.794175153E0,-1.056774855E0,-2.155391693E0,2.958002090E-1,2.418674060E0
1.812106063E0,-1.071010709E0,-2.106092453E0,2.905807495E-1,2.380572732E0
1.830018418E0,-1.094546556E0,-2.095234156E0,2.764654160E-1,2.380015012E0
1.847931506E0,-1.117811918E0,-2.065183401E0,2.617082596E-1,2.362832448E0
1.865846364E0,-1.112358332E0,-2.063808680E0,2.804393768E-1,2.361205956E0
1.883759634E0,-1.097052574E0,-2.067319870E0,2.848052979E-1,2.357636497E0
1.901674980E0,-1.100995898E0,-2.051575661E0,3.178720474E-1,2.349935594E0
1.919588251E0,-1.090150595E0,-2.050144911E0,3.407783508E-1,2.346838801E0
1.937503231E0,-1.094107866E0,-2.073100567E0,3.881597519E-1,2.376023143E0
1.955416197E0,-1.059771657E0,-2.090036154E0,3.870763779E-1,2.375120041E0
1.973331725E0,-1.044416547E0,-2.088535786E0,4.105272293E-1,2.370932360E0
1.991244752E0,-1.039148092E0,-2.086880445E0,3.957166672E-1,2.364633255E0
2.009159549E0,-1.062633753E0,-2.105036497E0,4.287834167E-1,2.396711156E0
2.027066106E0,-1.066654801E0,-2.127223492E0,3.852062225E-1,2.410646403E0
2.044988166E0,-1.094756961E0,-2.095985413E0,3.278436661E-1,2.387284885E0
2.062889778E0,-1.098794103E0,-2.084935427E0,3.034753799E-1,2.376215798E0
2.080816294E0,-1.117411971E0,-2.097565651E0,2.551450729E-1,2.390290815E0
2.098711316E0,-1.117206335E0,-2.095937252E0,2.498760223E-1,2.388208740E0
2.116644789E0,-1.096593738E0,-2.132694960E0,2.398376465E-1,2.410067989E0
2.134558243E0,-1.091052532E0,-2.141387463E0,2.483711243E-1,2.416117569E0
2.152472796E0,-1.090018749E0,-2.130132437E0,2.957048416E-1,2.411026011E0
2.170386189E0,-1.079375982E0,-2.133471251E0,2.856636047E-1,2.407977530E0
2.188301718E0,-1.064034343E0,-2.107437134E0,3.330469131E-1,2.384193910E0
2.206214746E0,-1.053712606E0,-2.106606483E0,3.421916962E-1,2.380167282E0
2.224129724E0,-1.043560028E0,-2.085771799E0,3.752212524E-1,2.362255811E0
2.242039944E0,-1.023651004E0,-2.074004412E0,3.938961029E-1,2.346169179E0
2.259960905E0,-1.041965127E0,-2.043543339E0,3.981704712E-1,2.328153867E0
2.277871613E0,-1.002981663E0,-2.037105322E0,4.162416458E-1,2.308468630E0
2.295783418E0,-9.975628257E-1,-2.021062851E0,4.115819931E-1,2.291119023E0
2.313702243E0,-1.011671066E0,-2.004964113E0,3.632154465E-1,2.274925252E0
2.331614476E0,-1.034177184E0,-2.007916689E0,3.961868286E-1,2.293079999E0
2.349524085E0,-1.039038420E0,-2.006333590E0,3.431100845E-1,2.285322699E0
2.367446694E0,-1.052490950E0,-2.014199734E0,2.953443527E-1,2.291716835E0
2.385356181E0,-1.066258073E0,-2.036378622E0,2.709350586E-1,2.314551787E0
2.403271526E0,-1.079770327E0,-2.058505535E0,2.369136810E-1,2.336552394E0
2.421184981E0,-1.074098468E0,-2.071187258E0,2.214622498E-1,2.343618933E0
2.439099534E0,-1.073206544E0,-2.088257074E0,1.921567917E-1,2.355740675E0
2.457013049E0,-1.076093435E0,-2.091822863E0,2.202939987E-1,2.362674209E0
2.474928212E0,-1.089142561E0,-2.089936018E0,2.340574265E-1,2.368300436E0
2.492842154E0,-1.078422666E0,-2.083158731E0,2.855024338E-1,2.363061020E0
2.510753227E0,-1.058302999E0,-2.090695858E0,3.231983185E-1,2.365474912E0
2.528675287E0,-1.057152271E0,-2.084024906E0,3.561239243E-1,2.363800961E0
2.546585140E0,-1.051370144E0,-2.053395033E0,3.986330032E-1,2.341093465E0
2.564495847E0,-1.055239797E0,-2.041858912E0,4.124250412E-1,2.335125962E0
2.582413512E0,-1.059072852E0,-2.039762020E0,4.166126251E-1,2.335771925E0
2.600326417E0,-1.048579454E0,-2.018599749E0,3.921079636E-1,2.308248789E0
2.618227115E0,-1.052520633E0,-1.997480273E0,3.580513000E-1,2.286028840E0
2.636154973E0,-1.066054106E0,-2.005270004E0,3.096866608E-1,2.292048205E0
2.654070014E0,-1.036285281E0,-1.988449335E0,3.187036514E-1,2.264815657E0
2.671983345E0,-1.020910263E0,-1.996205807E0,2.990226746E-1,2.261970368E0
2.689898753E0,-1.005620718E0,-2.008659124E0,3.080463409E-1,2.267350228E0
2.707811964E0,-9.950063229E-1,-2.030864477E0,2.973585129E-1,2.280980095E0
2.725724074E0,-9.606080651E-1,-2.028812647E0,2.967805862E-1,2.264271920E0
2.743643326E0,-9.602785110E-1,-2.031329393E0,2.817935944E-1,2.264473792E0
2.761555620E0,-1.006687760E0,-2.034007788E0,2.620677948E-1,2.284575990E0
2.779468769E0,-1.019967675E0,-2.027914762E0,2.662906647E-1,2.285537806E0
2.797383810E0,-9.949063063E-1,-2.025197983E0,2.704591751E-1,2.272534619E0
2.815297142E0,-1.055709362E0,-2.052347422E0,2.650156021E-1,2.323119770E0
2.833212365E0,-1.054542065E0,-2.035902977E0,2.739744186E-1,2.309117121E0
2.851125575E0,-1.062803030E0,-2.028971434E0,3.116178513E-1,2.311575446E0
2.869039336E0,-1.075992703E0,-2.017290592E0,2.966442108E-1,2.305475964E0
2.886952850E0,-1.065091491E0,-2.000821590E0,3.055810928E-1,2.287156909E0
2.904869600E0,-1.082734585E0,-1.999070644E0,3.575153351E-1,2.301394107E0
2.922783054E0,-1.076565266E0,-1.997088671E0,3.712625504E-1,2.298954504E0
2.940703648E0,-1.061131835E0,-1.999106884E0,3.610744476E-1,2.291899619E0
2.958608069E0,-1.045557022E0,-2.001790285E0,3.317432404E-1,2.282631685E0
2.976529336E0,-1.044450164E0,-1.985227346E0,3.359012604E-1,2.268222524E0
2.994439737E0,-1.038425088E0,-1.978266001E0,3.400526047E-1,2.259977612E0
3.012354534E0,-1.032649279E0,-1.980821848E0,3.298616409E-1,2.258058553E0
3.030268049E0,-1.012533665E0,-1.997861147E0,2.862043381E-1,2.258004984E0
3.048183640E0,-1.001943707E0,-2.005257368E0,2.712402344E-1,2.257990162E0
3.066096728E0,-1.010400295E0,-2.002951384E0,2.610206604E-1,2.258507203E0
3.084011768E0,-9.900842309E-1,-1.995763183E0,2.603454590E-1,2.243015208E0
3.101925344E0,-9.699182510E-1,-1.988199711E0,2.597370148E-1,2.227362301E0
3.119840385E0,-9.735550880E-1,-1.990589261E0,2.494964600E-1,2.229911119E0
3.137753961E0,-9.675804377E-1,-1.984202623E0,2.769832611E-1,2.224857677E0
3.155668453E0,-9.665727615E-1,-1.986631989E0,2.667684555E-1,2.225339294E0
3.173580564E0,-9.606359005E-1,-1.979525805E0,2.709035873E-1,2.216919597E0
3.191497069E0,-9.785367846E-1,-1.967752218E0,2.846269608E-1,2.215986358E0
3.209413758E0,-9.868506789E-1,-1.955929041E0,3.031244278E-1,2.211654832E0
3.227325687E0,-1.004777431E0,-1.948951721E0,3.126668930E-1,2.214893019E0
3.245239080E0,-1.003425241E0,-1.946635485E0,3.215684891E-1,2.213517160E0
3.263148810E0,-1.016369462E0,-1.949293375E0,3.257217407E-1,2.222351502E0
3.281067818E0,-1.034222364E0,-1.951655269E0,3.298234940E-1,2.233239289E0
3.298982798E0,-1.052140117E0,-1.929998636E0,3.339128494E-1,2.223373867E0
3.316896008E0,-1.046090126E0,-1.922801137E0,3.236627579E-1,2.212741816E0
3.334811597E0,-1.035273790E0,-1.939651966E0,2.943019867E-1,2.218254997E0
3.352711685E0,-1.043751955E0,-1.942081332E0,2.936573029E-1,2.224260024E0
3.370638506E0,-1.042496324E0,-1.939711690E0,2.738494873E-1,2.219070428E0
3.388554585E0,-1.036589622E0,-1.932461739E0,2.636079788E-1,2.208713558E0
3.406468771E0,-1.025886893E0,-1.929972410E0,2.533617020E-1,2.200324879E0
3.424382224E0,-9.960858822E-1,-1.956468105E0,2.383937836E-1,2.208344658E0
3.442296899E0,-9.758817554E-1,-1.949216485E0,2.371330261E-1,2.192720269E0
3.460210292E0,-9.748569131E-1,-1.961302996E0,2.604484558E-1,2.205649301E0
3.478125638E0,-9.591882825E-1,-1.958790541E0,2.549657822E-1,2.195884809E0
3.496039337E0,-9.390438795E-1,-1.951625228E0,2.591171265E-1,2.181235000E0
3.513954133E0,-9.425855875E-1,-1.925239563E0,2.680120468E-1,2.160288273E0
3.531867587E0,-9.462963343E-1,-1.922873735E0,2.865171432E-1,2.162177659E0
3.549782750E0,-9.450097084E-1,-1.925110698E0,2.906036377E-1,2.164149954E0
3.567696448E0,-9.340041876E-1,-1.903598547E0,2.899284363E-1,2.140119097E0
3.585611123E0,-9.707617760E-1,-1.905879259E0,3.035707474E-1,2.160303075E0
3.603524698E0,-9.887939692E-1,-1.893890500E0,3.124933243E-1,2.159209767E0
3.621440166E0,-9.779590368E-1,-1.905887485E0,2.974843979E-1,2.162708475E0
3.639353315E0,-9.718146324E-1,-1.913153768E0,2.920484543E-1,2.165611534E0
3.657268357E0,-9.895409346E-1,-1.915441513E0,2.722091675E-1,2.173063571E0
3.675170031E0,-9.980782866E-1,-1.907996774E0,2.858762741E-1,2.172173381E0
3.693097278E0,-9.967460036E-1,-1.905387521E0,2.564516068E-1,2.165588056E0
3.711010671E0,-9.954288602E-1,-1.912510514E0,2.414216995E-1,2.169529792E0
3.728925590E0,-9.846543074E-1,-1.914678335E0,2.311534882E-1,2.165402773E0
3.746838983E0,-1.002500892E0,-1.907443404E0,2.304840088E-1,2.167134342E0
3.764747187E0,-9.962247014E-1,-1.904863954E0,2.345523834E-1,2.162402635E0
3.782656370E0,-9.996878505E-1,-1.878271580E0,2.583627701E-1,2.143369134E0
3.800585632E0,-9.841516614E-1,-1.875649452E0,2.289581299E-1,2.130501628E0
3.818496156E0,-9.781785011E-1,-1.863519311E0,2.569932938E-1,2.120278981E0
3.836411502E0,-9.862323403E-1,-1.856207132E0,2.658605576E-1,2.118688505E0
3.854324650E0,-9.466583133E-1,-1.868227482E0,2.789802551E-1,2.112880941E0
3.872240301E0,-9.215573072E-1,-1.880043149E0,2.543821335E-1,2.109156320E0
3.890153267E0,-9.155679941E-1,-1.872738123E0,2.585000992E-1,2.100532106E0
3.908068980E0,-9.288956523E-1,-1.865491271E0,3.152933121E-1,2.107679930E0
3.925982251E0,-9.370524287E-1,-1.867719889E0,3.050251007E-1,2.111749310E0
3.943897169E0,-9.262565970E-1,-1.879535794E0,2.702560425E-1,2.112733872E0
3.961810623E0,-9.198631048E-1,-1.886603236E0,2.647676468E-1,2.115542911E0
3.979726091E0,-9.567139149E-1,-1.860194683E0,2.503299713E-1,2.106725153E0
3.997639240E0,-9.646972418E-1,-1.852939248E0,2.544231415E-1,2.104460919E0
4.015554526E0,-9.634829760E-1,-1.855146170E0,2.441768646E-1,2.104635146E0
4.033467917E0,-9.574272037E-1,-1.871649742E0,2.339134216E-1,2.115290783E0
4.105125091E0,-9.697152972E-1,-1.840388536E0,2.379436493E-1,2.093799155E0
4.123040497E0,-9.587148428E-1,-1.842529655E0,2.420206070E-1,2.091081933E0
4.140953768E0,-9.576070309E-1,-1.844502211E0,2.413110733E-1,2.092231026E0
4.158868261E0,-9.514080882E-1,-1.841853142E0,2.406053543E-1,2.086981381E0
4.176768226E0,-9.548603296E-1,-1.839191675E0,2.542629242E-1,2.087829950E0
4.194694741E0,-9.583356380E-1,-1.826892138E0,2.583389282E-1,2.079105836E0
4.212614298E0,-9.475289583E-1,-1.829147696E0,2.624654770E-1,2.076651282E0
4.230526165E0,-9.366068840E-1,-1.836121202E0,2.659673691E-1,2.078295495E0
4.248439985E0,-9.257493019E-1,-1.843081832E0,2.509317398E-1,2.077722105E0
4.266355088E0,-9.196293354E-1,-1.835582972E0,2.502269745E-1,2.068259292E0
4.284267687E0,-9.182702899E-1,-1.827985883E0,2.542848587E-1,2.061410561E0
4.302184559E0,-9.120264649E-1,-1.825267911E0,2.439966202E-1,2.054976781E0
4.320096853E0,-9.011357427E-1,-1.827273965E0,2.289257050E-1,2.050215293E0
4.337995109E0,-9.043616652E-1,-1.819760203E0,2.329845428E-1,2.045404365E0
4.355923761E0,-9.126389027E-1,-1.802642822E0,2.322788239E-1,2.033810307E0
4.373841914E0,-9.252382517E-1,-1.804693460E0,2.219600677E-1,2.040159450E0
4.391754819E0,-9.188265204E-1,-1.801897645E0,2.164297104E-1,2.034187582E0
4.409658446E0,-9.220818877E-1,-1.813660860E0,2.300958633E-1,2.047570470E0
4.427583131E0,-9.252644181E-1,-1.810957551E0,2.341604233E-1,2.047074156E0
4.445498050E0,-9.285945296E-1,-1.808079720E0,2.286329269E-1,2.045412694E0
4.463411564E0,-9.320341349E-1,-1.805260897E0,2.327022552E-1,2.044946179E0
4.481326849E0,-9.354653955E-1,-1.788118720E0,2.373762131E-1,2.031947718E0
4.499240181E0,-9.437280893E-1,-1.790967226E0,2.456970215E-1,2.039253132E0
4.517155161E0,-9.279674292E-1,-1.792457104E0,2.402162552E-1,2.032665705E0
4.535068616E0,-9.263004065E-1,-1.789637446E0,2.394723892E-1,2.029330347E0
4.552984327E0,-9.201348424E-1,-1.786999345E0,2.483644485E-1,2.025265337E0
4.570897964E0,-9.089671969E-1,-1.774614453E0,2.434434891E-1,2.008666860E0
4.588796587E0,-9.173326492E-1,-1.776646376E0,2.379751205E-1,2.013604651E0
4.606723225E0,-8.920255303E-1,-1.778718829E0,2.277145386E-1,2.002849004E0
4.624644368E0,-8.858569860E-1,-1.771300554E0,2.174701691E-1,1.992370831E0
4.642555137E0,-8.843253851E-1,-1.773241520E0,2.161426544E-1,1.993272315E0
4.660470178E0,-8.827396631E-1,-1.770555615E0,2.250118256E-1,1.991162179E0
4.678383510E0,-8.767614961E-1,-1.758312702E0,2.195672989E-1,1.977013930E0
4.696298978E0,-8.802510500E-1,-1.765017986E0,2.188596725E-1,1.984447016E0
4.714200773E0,-8.837512732E-1,-1.767112374E0,2.181892395E-1,1.987789979E0
4.732127595E0,-8.870017529E-1,-1.764335632E0,2.174787521E-1,1.986693067E0
4.750040988E0,-8.905044198E-1,-1.761515617E0,2.311410904E-1,1.987300077E0
4.767956334E0,-8.987120390E-1,-1.749030232E0,2.304210663E-1,1.979869680E0
4.785869849E0,-9.019989371E-1,-1.751012921E0,2.303094864E-1,1.983101307E0
4.803784645E0,-8.957809806E-1,-1.748201132E0,2.296066284E-1,1.977713318E0
4.821698221E0,-9.040077925E-1,-1.745393276E0,2.241277695E-1,1.978348057E0
4.839613689E0,-9.025253057E-1,-1.732898235E0,2.329702377E-1,1.967679688E0
4.857527449E0,-9.056513309E-1,-1.725348711E0,2.316598892E-1,1.962319753E0
4.875441819E0,-8.995893002E-1,-1.722439766E0,2.309560776E-1,1.956885374E0
4.893355516E0,-8.935340643E-1,-1.724410534E0,2.207021713E-1,1.954662186E0
4.911270679E0,-8.870553374E-1,-1.730917573E0,2.151441574E-1,1.956841799E0
4.929184560E0,-8.855496645E-1,-1.718586206E0,2.240228653E-1,1.946258719E0
4.947099723E0,-8.792959452E-1,-1.715801239E0,2.281150818E-1,1.941435485E0
4.965012872E0,-8.683657646E-1,-1.717750430E0,2.172546387E-1,1.936988699E0
4.982928462E0,-8.575029373E-1,-1.724526167E0,2.117938995E-1,1.937565081E0
5.000830442E0,-8.656603098E-1,-1.721832514E0,2.117252350E-1,1.938788940E0
5.018757445E0,-8.640881777E-1,-1.714083195E0,2.157773972E-1,1.931654592E0
5.036669740E0,-8.625359535E-1,-1.715833068E0,2.150325775E-1,1.932431214E0
5.054585939E0,-8.560165763E-1,-1.708129883E0,2.142953873E-1,1.922600996E0
5.072499515E0,-8.595409393E-1,-1.700498939E0,2.184038162E-1,1.917865348E0
5.090414069E0,-8.723694682E-1,-1.692739964E0,2.176761627E-1,1.916710720E0
5.108327950E0,-8.661046028E-1,-1.694821715E0,2.170085907E-1,1.915633200E0
5.126243174E0,-8.646035194E-1,-1.691863060E0,2.210750580E-1,1.912802666E0
5.144156993E0,-8.730231524E-1,-1.684079409E0,2.155981064E-1,1.909129493E0
5.162071790E0,-8.715856671E-1,-1.681812048E0,2.244768143E-1,1.907496574E0
5.179985183E0,-8.701268435E-1,-1.683404565E0,2.231216431E-1,1.908076235E0
5.197900591E0,-8.735169172E-1,-1.680533886E0,2.182474136E-1,1.906530325E0
5.215814351E0,-8.767300844E-1,-1.677213073E0,2.223587036E-1,1.905555752E0
5.233717488E0,-8.750623465E-1,-1.669541717E0,2.120742798E-1,1.896860341E0
5.251642722E0,-8.641310334E-1,-1.671535134E0,2.066230774E-1,1.892999008E0
5.269555322E0,-8.530282974E-1,-1.677983165E0,2.010946274E-1,1.893072589E0
5.287474941E0,-8.514638543E-1,-1.675556421E0,2.141256332E-1,1.891647378E0
5.305386747E0,-8.499523401E-1,-1.663161755E0,2.660865784E-1,1.886618157E0
5.323299834E0,-8.432523608E-1,-1.660320759E0,2.941350937E-1,1.885273195E0
5.341211762E0,-8.370429277E-1,-1.652489185E0,3.125619888E-1,1.878578284E0
5.359133151E0,-8.307776451E-1,-1.649707556E0,3.262529373E-1,1.875677876E0
5.377044164E0,-8.387898207E-1,-1.651647449E0,3.303518295E-1,1.881658840E0
5.394957373E0,-8.324105144E-1,-1.639136434E0,3.248605728E-1,1.866871689E0
5.412866188E0,-8.364107013E-1,-1.636466265E0,2.811555862E-1,1.859207670E0
5.430784586E0,-8.352262974E-1,-1.638531685E0,2.374601364E-1,1.854393800E0
5.448703899E0,-8.290740252E-1,-1.635033250E0,1.985006332E-1,1.843935999E0
5.466615217E0,-8.323693871E-1,-1.636909008E0,1.643142700E-1,1.843721529E0
5.484530562E0,-8.357084394E-1,-1.638887644E0,1.349391937E-1,1.844605619E0
5.502444262E0,-8.294546604E-1,-1.640871406E0,1.103496552E-1,1.841909620E0
5.520359119E0,-8.376147747E-1,-1.647618055E0,1.001176834E-1,1.851017914E0
5.538265249E0,-8.409374356E-1,-1.635174036E0,9.047222137E-2,1.840965812E0
5.556187797E0,-8.489556909E-1,-1.637145519E0,1.185178757E-1,1.847976651E0
5.574101677E0,-8.425725698E-1,-1.634860396E0,1.411628723E-1,1.844620288E0
5.592016597E0,-8.412367105E-1,-1.617715716E0,1.740217209E-1,1.831656873E0
5.609930295E0,-8.348601460E-1,-1.609865665E0,2.259483337E-1,1.827487777E0
5.627845519E0,-8.327629566E-1,-1.602055550E0,2.683210373E-1,1.825396479E0
5.645747437E0,-8.262141347E-1,-1.599027157E0,3.100719452E-1,1.826379549E0
5.663670168E0,-8.249132633E-1,-1.596066952E0,3.429059982E-1,1.829069744E0
5.681591923E0,-8.138997555E-1,-1.588373303E0,3.709526062E-1,1.822901094E0
5.699503485E0,-8.075221777E-1,-1.585300684E0,3.893842697E-1,1.821233218E0
5.717416940E0,-8.013632298E-1,-1.587069750E0,3.934907913E-1,1.820936138E0
5.735331553E0,-8.047667146E-1,-1.588824511E0,3.832378387E-1,1.821780456E0
5.753244335E0,-7.984496355E-1,-1.595668197E0,3.730287552E-1,1.822862931E0
5.771161634E0,-8.017472625E-1,-1.587952971E0,3.627882004E-1,1.815491281E0
5.789074539E0,-8.004406095E-1,-1.589807868E0,3.525629044E-1,1.814523306E0
5.806989336E0,-7.989237309E-1,-1.582205772E0,3.423423767E-1,1.805229220E0
5.824891010E0,-7.976978421E-1,-1.584059358E0,3.225564957E-1,1.802667077E0
5.842817159E0,-8.009382486E-1,-1.590527534E0,3.170690536E-1,1.808815275E0
5.860733359E0,-7.996695042E-1,-1.582686186E0,3.259716034E-1,1.802948797E0
5.878647058E0,-7.982982397E-1,-1.579752088E0,3.348894119E-1,1.801401581E0
5.896560695E0,-8.017126322E-1,-1.571819782E0,3.389844894E-1,1.796739006E0
5.914476101E0,-8.048114777E-1,-1.559271812E0,3.526544571E-1,1.789808723E0
5.932389860E0,-8.034400344E-1,-1.556516409E0,3.855361938E-1,1.793571124E0
5.950304474E0,-7.971861959E-1,-1.549350858E0,4.087991714E-1,1.789723631E0
5.968218172E0,-7.957175374E-1,-1.546325445E0,4.320554733E-1,1.791915376E0
5.986133885E0,-7.887173295E-1,-1.538568377E0,4.553089142E-1,1.787896497E0
6.004047278E0,-7.872920036E-1,-1.531058192E0,4.780254364E-1,1.786750180E0
6.021962013E0,-7.812657356E-1,-1.528113723E0,4.917488098E-1,1.785307982E0
6.039875894E0,-7.893873453E-1,-1.529811025E0,5.149984360E-1,1.796852120E0
6.057791119E0,-7.882526517E-1,-1.531625390E0,5.239419937E-1,1.800481544E0
6.075705427E0,-7.725334764E-1,-1.528694749E0,5.280876160E-1,1.792370536E0
6.093618759E0,-7.714582682E-1,-1.520955443E0,5.274705887E-1,1.785127038E0
6.111533616E0,-7.700949907E-1,-1.517981529E0,5.220403671E-1,1.780404550E0
6.129448901E0,-7.686266303E-1,-1.519778371E0,5.261697769E-1,1.782517273E0
6.147362172E0,-7.674797177E-1,-1.516878843E0,5.159883499E-1,1.776567060E0
6.165277397E0,-7.663171291E-1,-1.518691897E0,5.249347687E-1,1.780231314E0
6.183191155E0,-7.793175578E-1,-1.520599604E0,5.290985107E-1,1.788715809E0
6.201106867E0,-7.781180143E-1,-1.512570500E0,5.475683212E-1,1.786943824E0
6.219020443E0,-7.671458125E-1,-1.509535789E0,5.564870834E-1,1.782382919E0
6.236927611E0,-7.706352472E-1,-1.516109228E0,5.702095032E-1,1.793768311E0
6.254847536E0,-7.691724896E-1,-1.517722249E0,5.886726379E-1,1.800456225E0
6.272765749E0,-7.583568692E-1,-1.505230427E0,6.071996689E-1,1.791511992E0
6.290677921E0,-7.665174007E-1,-1.498173118E0,6.065797806E-1,1.788857358E0
6.308592901E0,-7.691900730E-1,-1.485737801E0,6.250963211E-1,1.786005485E0
6.326506294E0,-7.680962086E-1,-1.478064895E0,6.292896271E-1,1.780632768E0
6.344422006E0,-7.620768547E-1,-1.484713793E0,6.334648132E-1,1.785052898E0
6.362335643E0,-7.655669451E-1,-1.481903791E0,6.466283798E-1,1.788927012E0
6.380250562E0,-7.644287348E-1,-1.474270940E0,6.556119919E-1,1.785400005E0
6.398164382E0,-7.632658482E-1,-1.476150870E0,6.693716049E-1,1.791550862E0
6.416079729E0,-7.665694952E-1,-1.463731289E0,6.831140518E-1,1.787954945E0
6.433993304E0,-7.651932836E-1,-1.465390444E0,7.016057968E-1,1.795867648E0
6.451908406E0,-7.496972084E-1,-1.457717776E0,7.058010101E-1,1.784696637E0
6.469822349E0,-7.535017729E-1,-1.454781055E0,7.147884369E-1,1.787477371E0
6.487733301E0,-7.523007393E-1,-1.447060108E0,7.189722061E-1,1.782374930E0
6.505655117E0,-7.603021860E-1,-1.444156289E0,7.279186249E-1,1.787040102E0
6.523566006E0,-7.496008277E-1,-1.446102023E0,7.321271896E-1,1.785811492E0
6.541479704E0,-7.479969263E-1,-1.447809577E0,7.410430908E-1,1.790194636E0
6.559383210E0,-7.513463497E-1,-1.454547167E0,7.595872879E-1,1.804771910E0
6.577308383E0,-7.356857061E-1,-1.442285061E0,7.685947418E-1,1.792249294E0
6.595224217E0,-7.439883351E-1,-1.453919172E0,7.728166580E-1,1.806832917E0
6.613137426E0,-7.371175289E-1,-1.455764532E0,7.913417816E-1,1.813508875E0
6.631052833E0,-7.355780005E-1,-1.452956676E0,7.955284119E-1,1.812463393E0
6.648957803E0,-7.342237830E-1,-1.445799112E0,8.086776733E-1,1.812009717E0
6.666878583E0,-7.278296947E-1,-1.442981482E0,8.224296570E-1,1.813373145E0
6.684798017E0,-7.454775572E-1,-1.435339808E0,8.218297958E-1,1.814205437E0
6.702707748E0,-7.393733263E-1,-1.422933459E0,8.308210373E-1,1.806011113E0
6.720622850E0,-7.378533483E-1,-1.420194149E0,8.254537582E-1,1.800764530E0
6.738527759E0,-7.364835739E-1,-1.417467237E0,8.201036453E-1,1.795603356E0
6.756452810E0,-7.401106954E-1,-1.419520736E0,8.195552826E-1,1.798464295E0
6.774368094E0,-7.436843514E-1,-1.397520423E0,8.285560608E-1,1.786794586E0
6.792282036E0,-7.375025153E-1,-1.394747376E0,8.333673477E-1,1.784301359E0
6.810197200E0,-7.314451337E-1,-1.401485562E0,8.274126053E-1,1.784316503E0
6.828110531E0,-7.397701740E-1,-1.389157534E0,8.370275497E-1,1.782591844E0
6.846026366E0,-7.433086634E-1,-1.367185593E0,8.556051254E-1,1.775884102E0
6.863939697E0,-7.371279597E-1,-1.378779531E0,8.592252731E-1,1.784000755E0
6.881854372E0,-7.215101123E-1,-1.399743676E0,8.394966125E-1,1.784548616E0
6.899768497E0,-7.153505683E-1,-1.401724339E0,8.437118530E-1,1.785611169E0
6.917683905E0,-7.041778564E-1,-1.398852468E0,8.479003906E-1,1.780895772E0
6.935597665E0,-7.074248195E-1,-1.386452556E0,8.574867249E-1,1.777071762E0
6.953501413E0,-7.248966694E-1,-1.397846699E0,8.472995758E-1,1.788118325E0
6.971426036E0,-7.088370323E-1,-1.399660349E0,8.269414902E-1,1.773508178E0
6.989341139E0,-7.070659399E-1,-1.406198740E0,8.263101578E-1,1.777674216E0
7.007255814E0,-7.101948857E-1,-1.398330212E0,8.400363922E-1,1.779147351E0
7.025170305E0,-7.038075924E-1,-1.381141663E0,8.304796219E-1,1.758577215E0
7.043084246E0,-7.071496248E-1,-1.363985419E0,8.251295090E-1,1.743948257E0
7.060987813E0,-7.012110949E-1,-1.360582948E0,8.150167465E-1,1.734109355E0
7.078910179E0,-7.093840837E-1,-1.363063931E0,8.144407272E-1,1.739104010E0
7.096831018E0,-7.032625079E-1,-1.350550056E0,8.234367371E-1,1.731072404E0
7.114741724E0,-7.162029147E-1,-1.328661919E0,8.468151093E-1,1.730718041E0
7.132657436E0,-7.051377296E-1,-1.325742722E0,8.414468765E-1,1.721291907E0
7.150570829E0,-6.944262981E-1,-1.322240114E0,8.408946991E-1,1.713957613E0
7.168486054E0,-7.075268030E-1,-1.353566408E0,8.499288559E-1,1.747888800E0
7.186399630E0,-6.919530034E-1,-1.350718141E0,8.493814468E-1,1.739162815E0
7.204314975E0,-6.856606007E-1,-1.338191986E0,8.631544113E-1,1.733760015E0
7.222228795E0,-6.985975504E-1,-1.335347176E0,8.721656799E-1,1.741224739E0
7.240143776E0,-7.113770247E-1,-1.332617044E0,8.476848602E-1,1.732193719E0
7.258045389E0,-6.765624881E-1,-1.353686810E0,8.226070404E-1,1.722465420E0
7.275973003E0,-6.511647105E-1,-1.345274329E0,8.220186234E-1,1.705723635E0
7.293871625E0,-6.928312778E-1,-1.314527631E0,8.508100510E-1,1.712272120E0
7.311804245E0,-7.009357214E-1,-1.311776400E0,8.598384857E-1,1.717961126E0
7.329715257E0,-6.660543084E-1,-1.322751760E0,8.114414215E-1,1.688708898E0
7.347630847E0,-6.738563776E-1,-1.330119729E0,8.389844894E-1,1.710904990E0
7.365544301E0,-6.773926020E-1,-1.322610855E0,8.247070312E-1,1.699500485E0
7.383455313E0,-6.712182760E-1,-1.319818974E0,8.337383270E-1,1.699286820E0
7.401371331E0,-6.743515134E-1,-1.326678157E0,8.236217499E-1,1.700934356E0
7.419290400E0,-6.727973223E-1,-1.309491277E0,8.230657578E-1,1.686671540E0
7.437202145E0,-6.711388230E-1,-1.296998739E0,8.416328430E-1,1.685520362E0
7.455117186E0,-6.744697094E-1,-1.318191886E0,8.506727219E-1,1.707683611E0
7.473019043E0,-6.538961530E-1,-1.319528818E0,8.118410110E-1,1.681613008E0
7.490943484E0,-6.669365168E-1,-1.298134089E0,8.400182724E-1,1.683920166E0
7.508862858E0,-6.749691963E-1,-1.280887723E0,8.538179398E-1,1.680851525E0
7.526775152E0,-6.687863469E-1,-1.282884240E0,8.485012054E-1,1.677206441E0
7.544688483E0,-6.672768593E-1,-1.289594650E0,8.431653976E-1,1.679059456E0
7.562604074E0,-6.512293816E-1,-1.271699071E0,8.282346725E-1,1.651451152E0
7.580517895E0,-6.592059731E-1,-1.255348444E0,8.749799728E-1,1.666145907E0
7.598432691E0,-6.816517711E-1,-1.262259960E0,8.463516235E-1,1.665611123E0
7.616346694E0,-6.611887217E-1,-1.264212847E0,8.308696747E-1,1.650984271E0
7.634261735E0,-6.408555508E-1,-1.270949244E0,8.255672455E-1,1.645469263E0
7.652175678E0,-6.633502841E-1,-1.282582879E0,8.489799500E-1,1.675058028E0
7.670090779E0,-6.715596914E-1,-1.265285373E0,8.203210831E-1,1.650716866E0
7.688004233E0,-6.511718035E-1,-1.262341619E0,8.383321762E-1,1.649342874E0
7.705907800E0,-6.405029297E-1,-1.293067694E0,8.186931610E-1,1.659074005E0
7.723829127E0,-6.487315297E-1,-1.285522699E0,8.086109161E-1,1.651445676E0
7.741753079E0,-6.664478183E-1,-1.253886819E0,8.463554382E-1,1.653088738E0
7.759662077E0,-6.314786673E-1,-1.274958014E0,8.266792297E-1,1.645503508E0
7.777577728E0,-6.396153569E-1,-1.262552857E0,8.022260666E-1,1.626872516E0
7.795488863E0,-6.621665955E-1,-1.231117606E0,8.543634415E-1,1.638307679E0
7.813405430E0,-6.417928934E-1,-1.223517179E0,8.490724564E-1,1.621670880E0
7.831320471E0,-6.453099251E-1,-1.220959663E0,8.246736526E-1,1.608494337E0
7.849235511E0,-6.485006213E-1,-1.208686590E0,8.433036804E-1,1.610166894E0
7.867149026E0,-6.518583894E-1,-1.220421553E0,8.242702484E-1,1.610518416E0
7.885052593E0,-6.411280036E-1,-1.203117967E0,8.476810455E-1,1.605335203E0
7.902974897E0,-6.444905996E-1,-1.233979583E0,8.376207352E-1,1.624709894E0
7.920896041E0,-6.286739111E-1,-1.255279303E0,8.078193665E-1,1.619731195E0
7.938807237E0,-6.366240382E-1,-1.247539043E0,8.120574951E-1,1.618975357E0
7.956721790E0,-6.401132345E-1,-1.249355793E0,8.450326920E-1,1.638510025E0
7.974635548E0,-6.099677682E-1,-1.256093264E0,8.199911118E-1,1.619325906E0
7.992551382E0,-6.132906675E-1,-1.248445988E0,8.099012375E-1,1.609559829E0
8.010464714E0,-6.215088964E-1,-1.245549679E0,8.141717911E-1,1.612619923E0
8.028380183E0,-6.059567332E-1,-1.233047009E0,8.375902176E-1,1.609082304E0
8.046293576E0,-6.044222713E-1,-1.215796113E0,8.370656967E-1,1.595044028E0
8.064208799E0,-6.078162789E-1,-1.188978434E0,8.132219315E-1,1.563470580E0
8.082122680E0,-6.209269166E-1,-1.181473970E0,8.318862915E-1,1.572725590E0
8.100037966E0,-6.243442893E-1,-1.183649540E0,8.553447723E-1,1.588221239E0
8.117939274E0,-6.040412784E-1,-1.170839310E0,8.118143082E-1,1.547505420E0
8.135865545E0,-6.173767447E-1,-1.183129907E0,8.017911911E-1,1.556862080E0
8.153782172E0,-6.113153100E-1,-1.180356026E0,7.917356491E-1,1.547188448E0
8.171695932E0,-6.195394397E-1,-1.162821770E0,7.631587982E-1,1.522627642E0
8.189609569E0,-6.231884360E-1,-1.160732388E0,7.812433243E-1,1.531667273E0
8.207516370E0,-6.224995852E-1,-1.171777129E0,7.329120636E-1,1.515825672E0
8.225438247E0,-6.214257479E-1,-1.174392700E0,7.276611328E-1,1.514879170E0
8.243353714E0,-6.010242701E-1,-1.180623055E0,7.128305435E-1,1.504402989E0
8.261267169E0,-6.140098572E-1,-1.178423166E0,7.219133377E-1,1.512232830E0
8.279182820E0,-6.126479506E-1,-1.184574723E0,6.927089691E-1,1.502797559E0
8.297084616E0,-6.065586209E-1,-1.191312313E0,6.724815369E-1,1.496452407E0
8.315008569E0,-6.050523520E-1,-1.188638449E0,6.438884735E-1,1.481061132E0
8.332927698E0,-5.942782760E-1,-1.190768600E0,6.284809113E-1,1.471762475E0
8.350840664E0,-6.023849249E-1,-1.192715287E0,6.327705383E-1,1.478457273E0
8.368754362E0,-5.916220546E-1,-1.194723845E0,5.898303986E-1,1.457834565E0
8.386669281E0,-5.951683521E-1,-1.158296585E0,5.893402100E-1,1.429404851E0
8.404583040E0,-5.987313986E-1,-1.155492544E0,5.984401703E-1,1.432401112E0
8.422498447E0,-5.926831961E-1,-1.167079329E0,5.836153030E-1,1.433162361E0
8.440412329E0,-5.768995285E-1,-1.154907107E0,5.688037872E-1,1.410730747E0
8.458320168E0,-6.089928150E-1,-1.147336721E0,5.922536850E-1,1.427591758E0
8.476243326E0,-6.027210951E-1,-1.130485535E0,6.253108978E-1,1.425581980E0
8.494156657E0,-5.920046568E-1,-1.118233085E0,5.913667679E-1,1.396649347E0
8.512069928E0,-5.954847932E-1,-1.120328426E0,5.813398361E-1,1.395598053E0
8.529984786E0,-5.990618467E-1,-1.117634773E0,5.904636383E-1,1.398795872E0
8.547898911E0,-6.122094393E-1,-1.105334520E0,5.858230591E-1,1.392750321E0
8.565814319E0,-5.966545343E-1,-1.116787076E0,5.799646378E-1,1.392684095E0
8.583728138E0,-6.002866030E-1,-1.109272122E0,5.412330627E-1,1.372502049E0
8.601643301E0,-6.036909223E-1,-1.125699162E0,5.120601654E-1,1.376171118E0
8.619554070E0,-5.888628960E-1,-1.137254596E0,4.781122208E-1,1.367003592E0
8.637471919E0,-5.922661424E-1,-1.124740362E0,4.824094772E-1,1.359609859E0
8.655386594E0,-6.054013968E-1,-1.126701236E0,4.723777771E-1,1.363490847E0
8.673301145E0,-5.752748251E-1,-1.157243609E0,4.377899170E-1,1.364483018E0
8.691215027E0,-5.788571239E-1,-1.144843817E0,4.331464767E-1,1.354015807E0
8.709118532E0,-5.679715872E-1,-1.146914721E0,4.225273132E-1,1.347788719E0
8.727044194E0,-5.664607286E-1,-1.144249201E0,4.460029602E-1,1.352443208E0
8.744958929E0,-5.603668094E-1,-1.136718154E0,4.216232300E-1,1.335629167E0
8.762872932E0,-5.782589912E-1,-1.129045963E0,4.403028488E-1,1.342756436E0
8.780788522E0,-5.481948256E-1,-1.116232514E0,4.159355164E-1,1.311295141E0
8.798702160E0,-5.564034581E-1,-1.108761072E0,4.107074738E-1,1.306758031E0
8.816617261E0,-5.839499235E-1,-1.082818031E0,4.204568863E-1,1.300106302E0
8.834530714E0,-5.731815696E-1,-1.089103103E0,4.008836746E-1,1.294368727E0
8.852434586E0,-5.530137420E-1,-1.096072435E0,3.711643219E-1,1.282560695E0
8.870360003E0,-5.662481785E-1,-1.079044104E0,3.665542603E-1,1.272531022E0
8.888275105E0,-5.746382475E-1,-1.095630407E0,3.278589249E-1,1.279885378E0
8.906188864E0,-5.591334701E-1,-1.092918873E0,3.130760193E-1,1.266932711E0
8.924104271E0,-5.724851489E-1,-1.085489988E0,3.270235062E-1,1.270028399E0
8.942017725E0,-5.712628365E-1,-1.106563687E0,3.026475906E-1,1.281569345E0
8.959933254E0,-5.515334606E-1,-1.089386582E0,2.734928131E-1,1.251299566E0
8.977846891E0,-5.646807551E-1,-1.072084188E0,2.873916626E-1,1.245320372E0
8.995762421E0,-5.537582636E-1,-1.093233347E0,2.678050995E-1,1.254403020E0
9.013671541E0,-5.288996696E-1,-1.066760182E0,2.530622482E-1,1.217272627E0
9.031583530E0,-5.564133525E-1,-1.088023782E0,2.717866898E-1,1.251902382E0
9.049501867E0,-5.312481523E-1,-1.075834632E0,2.378730774E-1,1.223204135E0
9.067423622E0,-5.299668908E-1,-1.073323607E0,2.422571182E-1,1.221301348E0
9.085334207E0,-5.431708694E-1,-1.080213547E0,2.418432236E-1,1.233038541E0
9.103249247E0,-5.611576438E-1,-1.068326592E0,2.175483704E-1,1.226192033E0
9.121151288E0,-5.455077887E-1,-1.084997177E0,2.027950287E-1,1.231228429E0
9.139078597E0,-5.541710854E-1,-1.077641129E0,2.215557098E-1,1.231869688E0
9.156992478E0,-5.625025034E-1,-1.075067282E0,1.637248993E-1,1.224330253E0
9.174907458E0,-5.563310385E-1,-1.072490811E0,1.585273743E-1,1.218553115E0
9.192821156E0,-5.744760036E-1,-1.041008592E0,1.820449829E-1,1.202855745E0
9.210736624E0,-5.730624795E-1,-1.033516169E0,1.200017929E-1,1.187836986E0
9.228650383E0,-5.621219873E-1,-1.020763040E0,1.339502335E-1,1.172979530E0
9.246565424E0,-5.565720201E-1,-1.022856832E0,1.000299454E-1,1.168766230E0
9.264479183E0,-5.651770830E-1,-1.005664587E0,9.961605072E-2,1.157890217E0
9.282395017E0,-5.447425842E-1,-9.983226061E-1,1.279335022E-1,1.144447242E0
9.300308410E0,-5.483404398E-1,-1.009880662E0,1.035842896E-1,1.153804964E0
9.318223329E0,-5.280110836E-1,-1.002627969E0,7.927703857E-2,1.135932831E0
9.336137211E0,-5.407052040E-1,-1.009403348E0,1.267223358E-1,1.152091918E0
9.354050969E0,-5.349066854E-1,-1.025975823E0,1.167736053E-1,1.162922021E0
9.371966559E0,-5.198584199E-1,-1.023414016E0,9.185218811E-2,1.151549325E0
9.389881601E0,-5.371443033E-1,-1.050221801E0,1.345386505E-1,1.187261758E0
9.407790905E0,-5.361065269E-1,-1.047719121E0,1.245975494E-1,1.183490648E0
9.425715528E0,-5.158351660E-1,-1.054129124E0,1.002874374E-1,1.177850457E0
9.443609449E0,-5.289784670E-1,-1.061562896E0,1.375675201E-1,1.194009557E0
9.461536515E0,-5.276540518E-1,-1.054054022E0,1.090402603E-1,1.183781423E0
9.479456866E0,-5.217767954E-1,-1.051180243E0,1.086254120E-1,1.178571342E0
9.497369404E0,-5.254530311E-1,-1.024487734E0,1.417226791E-1,1.160069533E0
9.515282736E0,-5.242927074E-1,-1.011425495E0,9.823322296E-2,1.143465846E0
9.533186241E0,-5.229817033E-1,-1.004025936E0,9.783935547E-2,1.136288028E0
9.551108912E0,-5.215733051E-1,-1.001358747E0,1.261491776E-1,1.136077316E0
9.569030117E0,-5.300946832E-1,-9.892587066E-1,7.789039612E-2,1.125033366E0
9.586940885E0,-5.046638250E-1,-9.817835689E-1,9.662151337E-2,1.108115639E0
9.604856232E0,-5.169481039E-1,-9.744801521E-1,1.249475479E-1,1.110161609E0
9.622769807E0,-5.070737004E-1,-9.624173641E-1,9.109687805E-2,1.091636186E0
9.640685520E0,-5.102914572E-1,-9.599320889E-1,1.146736145E-1,1.093168342E0
9.658599280E0,-5.138342977E-1,-9.763814807E-1,1.142807007E-1,1.109236927E0
9.676506508E0,-4.985935688E-1,-9.787887931E-1,9.899139404E-2,1.102915384E0
9.694422891E0,-4.974677563E-1,-9.953646660E-1,9.862232208E-2,1.117117429E0
9.712346476E0,-5.010256767E-1,-9.830338955E-1,1.030101776E-1,1.108148666E0
9.730257429E0,-4.956566095E-1,-9.949861765E-1,6.018543243E-2,1.113236387E0
9.748172408E0,-4.985483587E-1,-1.012012720E0,9.747886658E-2,1.132352569E0
9.766085740E0,-4.927462339E-1,-1.018905759E0,8.274936676E-2,1.134819481E0
9.784002184E0,-4.820457101E-1,-1.001434922E0,7.281780243E-2,1.113796392E0
9.801915455E0,-4.997968972E-1,-1.013738871E0,1.011428833E-1,1.134765755E0
9.819830801E0,-4.794552922E-1,-9.866307974E-1,9.598827362E-2,1.101150061E0
9.837744499E0,-4.830685258E-1,-9.889441729E-1,7.649135590E-2,1.103275444E0
9.855656977E0,-4.964158833E-1,-9.820142984E-1,1.143999100E-1,1.106285746E0
9.873572200E0,-4.905153215E-1,-9.453726411E-1,1.002836227E-1,1.069762364E0
9.891490476E0,-5.082989931E-1,-9.334924221E-1,9.036922455E-2,1.066743908E0
9.909402588E0,-5.119944215E-1,-9.461062551E-1,1.187515259E-1,1.082292594E0
9.927318178E0,-5.108590722E-1,-9.240739346E-1,8.492469788E-2,1.059293081E0
9.945220279E0,-4.907833636E-1,-9.647581577E-1,6.007194519E-2,1.084082677E0
9.963147283E0,-4.941145778E-1,-9.627963305E-1,7.405471802E-2,1.084716595E0
9.981060859E0,-4.791305065E-1,-9.310619235E-1,7.370853424E-2,1.049702480E0
9.998976632E0,-5.058673024E-1,-9.485414028E-1,6.858730316E-2,1.077189277E0
1.001689051E1,-4.901103973E-1,-9.747192264E-1,7.779216766E-2,1.093772094E0
1.003480574E1,-4.607068598E-1,-9.621033669E-1,3.915786743E-2,1.067439477E0
1.005271931E1,-4.640112519E-1,-9.688960910E-1,6.272125244E-2,1.076104099E0
1.007063478E1,-4.769417942E-1,-9.527826309E-1,1.102333069E-1,1.071176736E0
1.008854872E1,-4.851204753E-1,-9.114308953E-1,8.176326752E-2,1.035728432E0
1.010646389E1,-4.741875827E-1,-9.280604124E-1,8.559226990E-2,1.045694042E0
1.012436275E1,-4.539789855E-1,-8.970209360E-1,1.139879227E-1,1.011798757E0
1.014229586E1,-4.819570482E-1,-8.898671865E-1,9.031867981E-2,1.016023459E0
1.016020700E1,-4.945512414E-1,-8.882720470E-1,1.091518402E-1,1.022507841E0
1.017811038E1,-4.935588837E-1,-8.767975569E-1,1.184568405E-1,1.013117145E0
1.019603293E1,-4.733141959E-1,-8.980035186E-1,7.927703857E-2,1.018195215E0
1.021395425E1,-4.771658778E-1,-9.101042747E-1,7.419109344E-2,1.030282187E0
1.023186521E1,-4.998617172E-1,-9.179726839E-1,7.865428925E-2,1.048199448E0
1.024978037E1,-4.659288526E-1,-9.151269197E-1,5.442142487E-2,1.028352404E0
1.026769199E1,-4.736382365E-1,-9.230277538E-1,6.845951080E-2,1.039711555E0
1.028560660E1,-4.869176149E-1,-9.254356623E-1,6.335353851E-2,1.047632378E0
1.030352647E1,-4.668105543E-1,-9.470273852E-1,4.809093475E-2,1.056922750E0
1.032143876E1,-4.418132007E-1,-9.251099825E-1,6.693649292E-2,1.027379131E0
1.033935240E1,-4.693776369E-1,-9.183937311E-1,8.155441284E-2,1.034607913E0
1.035725651E1,-4.540022612E-1,-8.963959217E-1,6.689643860E-2,1.007034674E0
1.037517900E1,-4.433793426E-1,-8.987582922E-1,1.000757217E-1,1.007157813E0
1.039309996E1,-4.519245625E-1,-8.970466852E-1,9.976959229E-2,1.009397116E0
1.041101085E1,-4.372104704E-1,-8.894908428E-1,6.119823456E-2,9.930217414E-1
1.042892669E1,-4.497105479E-1,-8.824398518E-1,1.039571762E-1,9.958648319E-1
1.044684020E1,-4.677100778E-1,-8.570728302E-1,7.974910736E-2,9.796358881E-1
1.046475549E1,-4.569027126E-1,-8.694640994E-1,7.947158813E-2,9.854154668E-1
1.048266912E1,-4.461404085E-1,-8.816058040E-1,7.857322693E-2,9.911830354E-1
1.050058484E1,-4.689974785E-1,-8.843280077E-1,5.496501923E-2,1.002504770E0
1.051849963E1,-4.534939826E-1,-8.870887756E-1,5.409049988E-2,9.977520084E-1
1.053641272E1,-4.666427374E-1,-8.801250458E-1,7.293701172E-2,9.988470094E-1
1.055432434E1,-4.703345895E-1,-8.777840137E-1,4.391574860E-2,9.968189373E-1
1.057224628E1,-4.548695683E-1,-8.753931522E-1,5.317497253E-2,9.879509466E-1
1.059015656E1,-4.490701854E-1,-8.825942278E-1,6.722736359E-2,9.925503115E-1
1.060807209E1,-4.337355494E-1,-8.610795140E-1,7.171154022E-2,9.668128057E-1
1.062598609E1,-4.470465481E-1,-8.493403792E-1,9.057140350E-2,9.640709907E-1
1.064390174E1,-4.511112571E-1,-8.566096425E-1,1.142196655E-1,9.748474639E-1
1.066181563E1,-4.310010672E-1,-8.641359806E-1,6.609725952E-2,9.679161950E-1
1.067972932E1,-4.443522394E-1,-8.573330045E-1,7.540607452E-2,9.685839506E-1
1.069764156E1,-4.432854950E-1,-8.601006269E-1,9.906768799E-2,9.726713347E-1
1.071556289E1,-4.329380989E-1,-8.579261303E-1,5.572891235E-2,9.625894006E-1
1.073347378E1,-4.561559558E-1,-8.700783253E-1,8.417797089E-2,9.860022712E-1
1.075138900E1,-4.409560859E-1,-8.822522759E-1,5.519294739E-2,9.878550549E-1
1.076929128E1,-4.493973851E-1,-8.608121872E-1,3.575420380E-2,9.717170342E-1
1.078721835E1,-4.387802780E-1,-8.729451895E-1,3.547096252E-2,9.776602812E-1
1.080513211E1,-4.376947582E-1,-8.419697881E-1,4.535102844E-2,9.500244950E-1
1.082304745E1,-4.515880346E-1,-8.300564885E-1,3.548431396E-2,9.456133796E-1
1.084096140E1,-4.354088008E-1,-8.420338631E-1,5.910682678E-2,9.497870642E-1
1.085887687E1,-4.246860743E-1,-8.296247721E-1,5.403232574E-2,9.335711094E-1
1.087679044E1,-4.196195006E-1,-8.131778240E-1,4.420280457E-2,9.161291321E-1
1.089470603E1,-4.180204868E-1,-8.405051231E-1,8.642196655E-2,9.426869818E-1
1.091261954E1,-4.172396660E-1,-8.090619445E-1,8.137989044E-2,9.139435735E-1
1.093053434E1,-4.071326256E-1,-8.069916368E-1,6.196975708E-2,9.059981939E-1
1.094844993E1,-4.152047932E-1,-8.151319027E-1,8.564662933E-2,9.187874532E-1
1.096636436E1,-4.048581719E-1,-8.127300739E-1,7.585430145E-2,9.111499259E-1
1.098426628E1,-4.183003306E-1,-7.964981794E-1,6.604766846E-2,9.020791600E-1
1.100219353E1,-4.365261793E-1,-8.048250079E-1,1.041011810E-1,9.214854608E-1
1.102010881E1,-4.164669514E-1,-8.365703821E-1,3.687953949E-2,9.352298254E-1
1.103802172E1,-4.158950746E-1,-8.052975535E-1,4.140949249E-2,9.072968692E-1
1.105593652E1,-4.333595037E-1,-8.182476759E-1,6.986999512E-2,9.285534636E-1
1.107385247E1,-4.416238666E-1,-8.161910772E-1,4.567050934E-2,9.291314813E-1
1.109176172E1,-4.259436131E-1,-8.284580708E-1,3.582477570E-2,9.322307392E-1
1.110968255E1,-4.203724861E-1,-8.073182106E-1,4.994392395E-2,9.115756226E-1
1.112759369E1,-4.143967628E-1,-8.149702549E-1,3.533744812E-2,9.149589765E-1
1.114551093E1,-4.226924777E-1,-8.272745609E-1,5.899906158E-2,9.308775532E-1
1.116342456E1,-3.978794813E-1,-8.347160816E-1,6.293296814E-2,9.268330902E-1
1.118132807E1,-3.734395802E-1,-8.130687475E-1,2.919101715E-2,8.952039006E-1
1.119925355E1,-4.097640812E-1,-8.357374072E-1,7.201099396E-2,9.335679940E-1
1.121716920E1,-4.042027295E-1,-8.196250200E-1,8.137321472E-2,9.174893024E-1
1.123508302E1,-3.889500499E-1,-8.129904866E-1,2.910423279E-2,9.017110008E-1
1.125299824E1,-4.117881954E-1,-8.303042054E-1,7.194328308E-2,9.295969166E-1
1.127091200E1,-4.061622918E-1,-8.235436082E-1,7.170963287E-2,9.210505704E-1
1.128882790E1,-4.146238565E-1,-7.980360985E-1,2.364444733E-2,8.996297109E-1
1.130674172E1,-4.280657172E-1,-7.963505387E-1,7.069396973E-2,9.068693821E-1
1.132465694E1,-4.127619863E-1,-7.899996042E-1,6.092548370E-2,8.934112975E-1
1.134256783E1,-4.023347795E-1,-7.787297368E-1,2.781772614E-2,8.769647106E-1
1.136048928E1,-4.251550436E-1,-7.862511873E-1,5.628013611E-2,8.956088401E-1
1.137838546E1,-3.903672993E-1,-7.748153210E-1,4.168128967E-2,8.685981464E-1
1.139631808E1,-4.041577578E-1,-7.634083033E-1,3.187656403E-2,8.643794572E-1
1.141422879E1,-4.169982076E-1,-7.711332440E-1,6.515598297E-2,8.790786582E-1
1.143214462E1,-3.729485869E-1,-7.836572528E-1,5.057621002E-2,8.693487743E-1
1.145005875E1,-3.718076944E-1,-7.907822728E-1,3.598690033E-2,8.745699638E-1
1.146797403E1,-4.043106437E-1,-7.993601561E-1,8.364391327E-2,8.996888684E-1
1.148588749E1,-3.890726566E-1,-7.976142168E-1,4.993629456E-2,8.888529713E-1
1.150379532E1,-3.928554356E-1,-8.053616285E-1,6.885719299E-2,8.987124451E-1
1.152171482E1,-4.010816216E-1,-8.131396174E-1,6.802463531E-2,9.092248653E-1
1.153963456E1,-3.809647560E-1,-8.111974001E-1,4.865264893E-2,8.975201655E-1
1.155754594E1,-3.943778872E-1,-7.997030616E-1,4.842567444E-2,8.929747760E-1
1.157546190E1,-4.124550223E-1,-7.739754915E-1,6.794738770E-2,8.796442772E-1
1.159336400E1,-4.161874652E-1,-7.293167114E-1,4.381942749E-2,8.408537411E-1
1.161129076E1,-3.958917260E-1,-7.276703119E-1,4.839611053E-2,8.298051127E-1
1.162920464E1,-3.809884787E-1,-7.063763738E-1,4.819679260E-2,8.040166249E-1
1.164712035E1,-3.895562887E-1,-6.855762601E-1,1.987934113E-2,7.887737944E-1
1.166503423E1,-4.028415680E-1,-6.791893244E-1,6.275081635E-2,7.921597896E-1
1.168294921E1,-3.780407608E-1,-7.064549923E-1,6.197738647E-2,8.036383947E-1
1.170086328E1,-3.532489836E-1,-7.383778095E-1,1.871967316E-2,8.187411436E-1
1.171877862E1,-3.562828898E-1,-7.517743111E-1,6.159210205E-2,8.342036319E-1
1.173669263E1,-3.648766875E-1,-7.741014957E-1,6.079959869E-2,8.579421391E-1
1.175460852E1,-3.592393994E-1,-7.868236899E-1,4.146671295E-2,8.659468537E-1
1.177252069E1,-3.630390167E-1,-8.089587688E-1,5.082607269E-2,8.881412652E-1
1.179043744E1,-3.718120754E-1,-8.212827444E-1,5.538749695E-2,9.032260738E-1
1.180835090E1,-3.611389399E-1,-8.051512837E-1,4.560279846E-2,8.836116448E-1
1.182626594E1,-3.792935312E-1,-7.792991996E-1,5.076408386E-2,8.681865108E-1
1.184418012E1,-3.688814938E-1,-7.725452185E-1,4.994678497E-2,8.575513701E-1
1.186209578E1,-3.822114468E-1,-7.325983047E-1,4.556083679E-2,8.275636870E-1
1.188000984E1,-3.812886477E-1,-7.117484808E-1,4.057788849E-2,8.084636651E-1
1.189792476E1,-3.713321984E-1,-6.759638786E-1,5.473709106E-2,7.731823303E-1
1.191583016E1,-3.703922331E-1,-6.698906422E-1,2.646064758E-2,7.659269186E-1
1.193375228E1,-3.742032647E-1,-6.542099714E-1,4.543972015E-2,7.550387660E-1
1.195167043E1,-3.828962445E-1,-6.623329520E-1,6.441116333E-2,7.677520898E-1
1.196958358E1,-3.674567640E-1,-6.945153475E-1,4.031467438E-2,7.867663657E-1
1.198749734E1,-3.611677885E-1,-7.170854807E-1,3.476715088E-2,8.036557179E-1
1.200540090E1,-3.507746458E-1,-7.401891947E-1,3.938770294E-2,8.200452958E-1
1.202332699E1,-3.592678607E-1,-7.577609420E-1,4.876899719E-2,8.400318184E-1
1.204124203E1,-3.726753592E-1,-7.701964378E-1,5.812644958E-2,8.575944032E-1
1.205915573E1,-3.481360674E-1,-7.634482384E-1,4.775238037E-2,8.404357346E-1
1.207707138E1,-3.568561971E-1,-7.662125826E-1,2.898979187E-2,8.457354641E-1
1.209498520E1,-3.796657622E-1,-7.498722076E-1,5.209255219E-2,8.421211628E-1
1.211290037E1,-3.596691191E-1,-7.193579674E-1,4.232311249E-2,8.053750718E-1
1.213081455E1,-3.731369376E-1,-6.984688640E-1,2.358436584E-2,7.922412199E-1
1.214873027E1,-3.770693541E-1,-7.111526728E-1,4.732608795E-2,8.063244883E-1
1.216664091E1,-3.430878222E-1,-6.946190000E-1,2.799701691E-2,7.752345721E-1
1.218456187E1,-3.564472497E-1,-6.888630390E-1,1.345729828E-2,7.757370864E-1
1.220247295E1,-3.787979484E-1,-6.971213222E-1,7.072639465E-2,7.965351508E-1
1.222038872E1,-3.443178236E-1,-7.051939964E-1,4.662227631E-2,7.861469156E-1
1.223830211E1,-3.526661992E-1,-7.084729671E-1,3.148174286E-2,7.920217758E-1
1.225621776E1,-3.897133470E-1,-6.877051592E-1,5.102729797E-2,7.920976353E-1
1.227413146E1,-3.410592079E-1,-6.909082532E-1,5.982685089E-2,7.728226509E-1
1.229204717E1,-3.218374848E-1,-6.741955876E-1,7.000923157E-3,7.471064649E-1
1.230996106E1,-3.728111982E-1,-6.825289130E-1,4.089260101E-2,7.787850226E-1
1.232786505E1,-3.479231894E-1,-6.664844751E-1,6.941795349E-2,7.550304322E-1
1.234579120E1,-3.237485886E-1,-6.785262227E-1,2.616119385E-2,7.522601887E-1
1.236370490E1,-3.323296607E-1,-6.955969334E-1,6.796836853E-3,7.709372828E-1
1.238161945E1,-3.215758801E-1,-6.699293256E-1,4.009628296E-2,7.441935634E-1
1.239953498E1,-3.437159061E-1,-6.830608845E-1,3.031635284E-2,7.652658867E-1
1.241743714E1,-3.666755557E-1,-6.812344193E-1,4.447460175E-2,7.749253431E-1
1.243536427E1,-3.273564577E-1,-6.891212463E-1,3.950023651E-2,7.639441153E-1
1.245327827E1,-3.311039507E-1,-7.160795331E-1,3.392219543E-2,7.896521001E-1
1.247119337E1,-3.539766073E-1,-7.097694874E-1,5.767440796E-2,7.952348716E-1
1.248910731E1,-3.433217108E-1,-7.128134370E-1,3.833866119E-2,7.921127735E-1
1.250702284E1,-3.182597160E-1,-7.207826972E-1,4.293918610E-2,7.890885357E-1
1.252493685E1,-3.362383544E-1,-7.094726562E-1,4.274272919E-2,7.862789720E-1
1.254285195E1,-3.305648863E-1,-7.029132843E-1,5.212593079E-2,7.785096929E-1
1.256076589E1,-3.247993290E-1,-6.821033359E-1,3.280162811E-2,7.561980638E-1
1.257868264E1,-3.333959579E-1,-6.566873789E-1,4.759120941E-2,7.380081989E-1
1.259659451E1,-3.515887856E-1,-6.360475421E-1,4.204082489E-2,7.279688049E-1
1.261451059E1,-3.553181887E-1,-6.346018314E-1,4.247379303E-2,7.285427391E-1
1.263242410E1,-3.302857876E-1,-6.380958557E-1,2.257919312E-2,7.188635771E-1
1.265032828E1,-3.292386234E-1,-6.654952765E-1,8.068084717E-3,7.425275268E-1
1.266825095E1,-3.234314620E-1,-6.639207602E-1,2.285003662E-2,7.388645414E-1
1.268617209E1,-3.369622231E-1,-6.431940794E-1,3.225421906E-2,7.268304467E-1
1.270408316E1,-3.310283422E-1,-6.654893160E-1,2.250003815E-2,7.436141774E-1
1.272199869E1,-3.155714869E-1,-6.639085412E-1,3.668022156E-2,7.360063540E-1
1.273990959E1,-3.146772087E-1,-6.623365283E-1,3.172874451E-2,7.339742064E-1
1.275782475E1,-3.183907866E-1,-6.605588794E-1,2.196598053E-2,7.336165418E-1
1.277574431E1,-3.030095994E-1,-6.589393020E-1,5.529022217E-2,7.273739270E-1
1.279365758E1,-3.308110237E-1,-6.432358623E-1,2.642822266E-2,7.238002203E-1
1.281157103E1,-3.299787045E-1,-6.464899182E-1,4.541110992E-2,7.272532768E-1
1.282947411E1,-3.100582063E-1,-6.497368813E-1,5.003833771E-2,7.216633158E-1
1.284739739E1,-3.331431150E-1,-6.530794501E-1,2.117156982E-2,7.334475705E-1
1.286531878E1,-3.036113977E-1,-6.563071012E-1,3.477001190E-2,7.239667435E-1
1.288322985E1,-3.217802644E-1,-6.595240235E-1,3.041553497E-2,7.344655070E-1
1.290114520E1,-3.303066492E-1,-6.485173702E-1,2.068519592E-2,7.280831953E-1
1.291905871E1,-3.195903897E-1,-6.520779729E-1,3.489685059E-2,7.270223450E-1
1.293697448E1,-3.090334237E-1,-6.649535894E-1,2.935409546E-2,7.338437136E-1
1.295488812E1,-3.033764660E-1,-6.442291737E-1,2.021789551E-2,7.123743901E-1
1.297280390E1,-3.073409796E-1,-6.378728151E-1,4.398632050E-2,7.094187779E-1
1.299071711E1,-3.159671724E-1,-6.219297051E-1,4.382038116E-2,6.989649762E-1
1.300863300E1,-3.104600012E-1,-6.250165105E-1,2.929782867E-2,6.984908113E-1
1.302654706E1,-3.048545718E-1,-6.187105775E-1,3.392887115E-2,6.905724125E-1
1.304446204E1,-3.039883077E-1,-6.171916723E-1,2.898693085E-2,6.886034372E-1
1.306237562E1,-3.036546707E-1,-6.009258032E-1,2.405929565E-2,6.737186577E-1
1.308028871E1,-3.170977533E-1,-5.858419538E-1,1.913261414E-2,6.664291687E-1
1.309820845E1,-3.060471416E-1,-6.130495667E-1,5.247688293E-2,6.872033523E-1
1.311612074E1,-3.053243458E-1,-6.260846853E-1,4.487991333E-3,6.965810300E-1
1.313403462E1,-2.851293385E-1,-6.341559291E-1,8.514404297E-3,6.953596028E-1
1.315193856E1,-3.034386337E-1,-6.324983835E-1,3.706359863E-2,7.024976298E-1
1.316986324E1,-3.025540411E-1,-6.403917670E-1,2.732563019E-2,7.087928140E-1
1.318777999E1,-2.964284718E-1,-6.531404257E-1,1.757621765E-2,7.174755592E-1
1.320569302E1,-2.907442749E-1,-6.562563181E-1,1.740932465E-2,7.179886301E-1
1.322360879E1,-2.852780819E-1,-6.261140704E-1,3.641319275E-2,6.890053220E-1
1.324150491E1,-2.846034169E-1,-6.340748072E-1,7.546424866E-3,6.950589288E-1
1.325943485E1,-2.934568822E-1,-6.038847566E-1,6.064319611E-2,6.741448941E-1
1.327735477E1,-2.925372422E-1,-6.025222540E-1,3.178787231E-2,6.705382714E-1
1.329525443E1,-2.918401957E-1,-5.869452953E-1,3.645133972E-2,6.565090858E-1
1.331318387E1,-2.862118781E-1,-5.856744051E-1,5.067825317E-2,6.538348670E-1
1.333109641E1,-3.046656847E-1,-5.891336799E-1,2.183437347E-2,6.636086287E-1
1.334901041E1,-2.994040549E-1,-5.737630129E-1,4.088020325E-2,6.484735724E-1
1.336692601E1,-2.895400524E-1,-5.870755911E-1,5.035877228E-2,6.565266160E-1
1.338484007E1,-3.077257574E-1,-6.002740860E-1,1.673316956E-2,6.747622685E-1
1.340275529E1,-2.929111421E-1,-6.179741621E-1,2.138996124E-2,6.842123447E-1
1.342066887E1,-2.878850698E-1,-6.116608977E-1,3.502082825E-2,6.769293358E-1
1.343858464E1,-3.015782237E-1,-6.244610548E-1,-7.596969604E-3,6.935118946E-1
1.345649828E1,-3.009520769E-1,-6.132609844E-1,2.096748352E-2,6.834477471E-1
1.347440563E1,-3.096202910E-1,-6.115771532E-1,2.080440521E-2,6.858018389E-1
1.349232659E1,-2.944980264E-1,-6.003545523E-1,1.107788086E-2,6.687880048E-1
1.351024413E1,-2.794192731E-1,-5.986515284E-1,1.092147827E-2,6.607405401E-1
1.352815722E1,-3.022537529E-1,-5.919617414E-1,2.509117126E-2,6.651357767E-1
1.354607232E1,-2.869372666E-1,-5.904417038E-1,1.058387756E-2,6.565564858E-1
1.356397400E1,-2.910267115E-1,-5.744931698E-1,5.829334259E-2,6.466351852E-1
1.358189801E1,-2.853508592E-1,-5.824511647E-1,2.463817596E-2,6.490620246E-1
1.359981928E1,-2.664946616E-1,-5.803084373E-1,5.368232727E-3,6.385969817E-1
1.361773060E1,-3.033459187E-1,-5.746358633E-1,4.350948334E-2,6.512435772E-1
1.363564454E1,-2.830974758E-1,-5.732584000E-1,4.336547852E-2,6.408197396E-1
1.365353944E1,-2.968491614E-1,-5.622941256E-1,2.888107300E-2,6.364968379E-1
1.367147437E1,-2.960967720E-1,-5.896857977E-1,4.311180115E-2,6.612573370E-1
1.368939235E1,-2.584933043E-1,-5.779223442E-1,4.710197449E-3,6.331154794E-1
1.370730311E1,-2.907077074E-1,-5.722585917E-1,1.414489746E-2,6.420209849E-1
1.372521901E1,-2.994041145E-1,-5.706737041E-1,2.356719971E-2,6.448772854E-1
1.374313265E1,-2.707181573E-1,-5.589426160E-1,-4.987716675E-4,6.210518637E-1
1.376104799E1,-2.740510106E-1,-5.675845146E-1,1.371383667E-2,6.304317623E-1
1.377896169E1,-2.782875299E-1,-5.706763268E-1,3.997802734E-3,6.349262962E-1
1.379687740E1,-2.680380344E-1,-5.643708110E-1,1.343154907E-2,6.249313616E-1
1.381479134E1,-2.865518332E-1,-5.485918522E-1,2.287483215E-2,6.193450018E-1
1.383270639E1,-2.568715811E-1,-5.662062168E-1,3.170108795E-2,6.225571846E-1
1.385062039E1,-2.606237531E-1,-5.552443862E-1,1.720523834E-2,6.136098836E-1
1.386853616E1,-2.741746306E-1,-5.775645971E-1,4.098606110E-2,6.406500208E-1
1.388643796E1,-2.685397565E-1,-5.714033842E-1,2.231121063E-2,6.317540807E-1
1.390436222E1,-2.631395757E-1,-5.795812011E-1,2.697277069E-2,6.370905236E-1
1.392228183E1,-2.670799494E-1,-5.876279473E-1,1.247501373E-2,6.455957945E-1
1.394019456E1,-2.762742341E-1,-5.763481855E-1,2.190876007E-2,6.395190983E-1
1.395810844E1,-2.708545923E-1,-5.602651238E-1,2.654647827E-2,6.228675097E-1
1.397601170E1,-2.702111900E-1,-5.729291439E-1,1.144599915E-2,6.335557608E-1
1.399393394E1,-2.696337104E-1,-5.712816119E-1,1.609134674E-2,6.319208410E-1
1.401185686E1,-2.600550056E-1,-5.355220437E-1,-2.593040466E-3,5.953311592E-1
1.402976707E1,-2.634659111E-1,-5.537725687E-1,4.931640625E-2,6.152320311E-1
1.404768242E1,-2.679561973E-1,-5.233209133E-1,-7.669448853E-3,5.879830970E-1
1.406558788E1,-2.666197717E-1,-5.409500599E-1,2.569484711E-2,6.036334112E-1
1.408350896E1,-2.658790052E-1,-5.346152782E-1,3.513050079E-2,5.981131107E-1
1.410142858E1,-2.654184103E-1,-5.380587578E-1,1.109027863E-2,6.000642912E-1
1.411934100E1,-2.598611712E-1,-5.272211432E-1,3.011512756E-2,5.885549109E-1
1.413725470E1,-2.590724528E-1,-5.353526473E-1,4.434394836E-2,5.963953207E-1
1.415517047E1,-2.773338258E-1,-5.385801792E-1,1.548862457E-2,6.059889090E-1
1.417308453E1,-2.527306378E-1,-5.373548269E-1,2.495002747E-2,5.943445879E-1
1.419099915E1,-2.665296495E-1,-5.457247496E-1,4.817676544E-2,6.092409680E-1
1.420891339E1,-2.610379159E-1,-5.444831252E-1,-8.765220642E-3,6.038869897E-1
1.422682892E1,-2.651744783E-1,-5.431315303E-1,3.418922424E-2,6.053744843E-1
1.424474274E1,-2.786336839E-1,-5.322368145E-1,2.927970886E-2,6.014732395E-1
1.426265821E1,-2.684070468E-1,-5.452403426E-1,-1.497268677E-4,6.077247703E-1
1.428057160E1,-2.631011605E-1,-5.387864709E-1,-2.841949463E-4,5.995941650E-1
1.429848756E1,-2.479997277E-1,-5.465589762E-1,2.349281311E-2,6.006517224E-1
1.431639845E1,-2.756758332E-1,-5.162367225E-1,-4.769325256E-3,5.852523089E-1
1.433431917E1,-2.701329291E-1,-5.244944096E-1,3.818511963E-2,5.912057919E-1
1.435223042E1,-2.501325011E-1,-5.134229660E-1,4.283809662E-2,5.727167822E-1
1.437014638E1,-2.589837909E-1,-5.263545513E-1,4.429817200E-3,5.866356117E-1
1.438804360E1,-2.630869150E-1,-5.200527906E-1,6.173038483E-2,5.860718986E-1
1.440597500E1,-2.384874374E-1,-5.137144327E-1,3.288745880E-2,5.673273844E-1
1.442389340E1,-2.713153362E-1,-5.316437483E-1,3.278160095E-2,5.977722979E-1
1.444180465E1,-2.468993366E-1,-5.207257867E-1,2.788639069E-2,5.769681777E-1
1.445971860E1,-2.320361435E-1,-5.193237066E-1,4.631900787E-2,5.706867220E-1
1.447761648E1,-2.601186633E-1,-5.132026672E-1,1.270675659E-2,5.754999204E-1
1.449554471E1,-2.357261032E-1,-5.260346532E-1,2.215862274E-2,5.768624244E-1
1.451346616E1,-2.397765815E-1,-5.005365014E-1,2.202796936E-2,5.554411127E-1
1.453137729E1,-2.581325173E-1,-4.944636822E-1,8.155822754E-3,5.578469745E-1
1.454929258E1,-2.528394461E-1,-4.978491068E-1,3.137397766E-2,5.592547229E-1
1.456720609E1,-2.284868062E-1,-5.013776422E-1,7.348060608E-3,5.510351664E-1
1.458512187E1,-2.611519098E-1,-4.809250534E-1,2.218627930E-2,5.477056307E-1
1.460303575E1,-2.604790330E-1,-4.939366579E-1,5.497550964E-2,5.611105553E-1
1.462095091E1,-2.361554801E-1,-4.783253968E-1,4.530811310E-2,5.353666231E-1
1.463886485E1,-2.498576641E-1,-4.964329600E-1,3.085994720E-2,5.566209415E-1
1.465678038E1,-2.349022031E-1,-5.045737624E-1,4.510116577E-2,5.583975662E-1
1.467469414E1,-2.487674654E-1,-4.842163324E-1,4.021739960E-2,5.458645873E-1
1.469260942E1,-2.576666772E-1,-5.022665262E-1,2.576732635E-2,5.650909086E-1
1.471051403E1,-2.425133288E-1,-4.915670753E-1,4.959487915E-2,5.503731063E-1
1.472843871E1,-2.467083633E-1,-4.999384284E-1,1.599597931E-2,5.577269225E-1
1.474635370E1,-2.510562539E-1,-5.034696460E-1,1.111316681E-2,5.627027897E-1
1.476426812E1,-2.362005413E-1,-4.927217662E-1,1.580524445E-2,5.466399550E-1
1.478218194E1,-2.643381357E-1,-4.866101146E-1,6.128311157E-3,5.538064732E-1
1.480008576E1,-2.540504634E-1,-4.805135727E-1,1.558971405E-2,5.437627890E-1
1.481801087E1,-2.532320023E-1,-4.792038202E-1,2.564620972E-2,5.426052675E-1
1.483592933E1,-2.526857257E-1,-4.826194644E-1,1.596832275E-2,5.450014777E-1
1.485383704E1,-2.473462373E-1,-4.768591523E-1,3.981494904E-2,5.386650559E-1
1.487175996E1,-2.514851689E-1,-4.708452225E-1,3.492927551E-2,5.349393125E-1
1.488967262E1,-2.556628883E-1,-4.506264925E-1,1.988315582E-2,5.184815214E-1
1.490758247E1,-2.501839995E-1,-4.638674259E-1,4.850387573E-2,5.292614178E-1
1.492550215E1,-2.209470123E-1,-4.772349000E-1,2.927875519E-2,5.267143225E-1
1.494341511E1,-2.443610877E-1,-4.473406076E-1,1.961517334E-2,5.101085330E-1
1.496132875E1,-2.723833025E-1,-4.653058648E-1,6.258773804E-2,5.427885742E-1
1.497923250E1,-2.478531599E-1,-4.784445465E-1,9.848594666E-3,5.389224135E-1
1.499715786E1,-2.425865084E-1,-4.819999337E-1,-4.603385925E-3,5.396233328E-1
1.501507357E1,-2.466123700E-1,-4.949871898E-1,3.356933594E-2,5.540368935E-1
1.503298770E1,-2.315879762E-1,-4.840745926E-1,3.346252441E-2,5.376624801E-1
1.505090267E1,-2.358565331E-1,-5.066568255E-1,4.048347473E-3,5.588790855E-1
1.506881680E1,-2.260070145E-1,-5.051532388E-1,3.265762329E-2,5.543694487E-1
1.508673251E1,-2.206752300E-1,-4.988834858E-1,3.254508972E-2,5.464809900E-1
1.510464615E1,-2.437762916E-1,-4.831972718E-1,1.867580414E-2,5.415304881E-1
1.512255008E1,-2.383768409E-1,-4.724841714E-1,4.729938507E-2,5.313210351E-1
1.514047251E1,-2.425452769E-1,-4.663086832E-1,2.804851532E-2,5.263636752E-1
1.515839402E1,-2.468987405E-1,-4.603657126E-1,1.839065552E-2,5.227176998E-1
1.517630485E1,-2.272857130E-1,-4.448345900E-1,4.701614380E-2,5.017440837E-1
1.519421836E1,-2.270657122E-1,-4.675325751E-1,2.240467072E-2,5.202379415E-1
1.521213737E1,-2.361103147E-1,-4.520524740E-1,8.559226990E-3,5.100713483E-1
1.523004545E1,-2.164192200E-1,-4.557275176E-1,6.051635742E-2,5.081211259E-1
1.524796800E1,-2.301817834E-1,-4.548342228E-1,1.797008514E-2,5.100791582E-1
1.526587895E1,-2.438111603E-1,-4.443421364E-1,-1.252174377E-3,5.068386173E-1
1.528379265E1,-2.336698622E-1,-4.528532028E-1,4.173469543E-2,5.112919055E-1
1.530169280E1,-2.569842935E-1,-4.468082786E-1,1.770973206E-2,5.157443160E-1
1.531961926E1,-2.324530333E-1,-4.789638221E-1,1.760673523E-2,5.326826004E-1
1.533754046E1,-2.222085297E-1,-4.681246281E-1,4.083728790E-2,5.197932110E-1
1.535545129E1,-2.074187249E-1,-4.857997298E-1,1.202011108E-2,5.283638784E-1
1.537336712E1,-2.210415900E-1,-4.604676962E-1,3.643703461E-2,5.120718126E-1
1.539128088E1,-2.010970116E-1,-4.687801003E-1,4.052257538E-2,5.116999801E-1
1.540919617E1,-2.195966542E-1,-4.482754767E-1,2.127742767E-2,4.996261827E-1
1.542711005E1,-1.854302883E-1,-4.613453746E-1,3.553485870E-2,4.984843755E-1
1.544502600E1,-2.084091008E-1,-4.411290884E-1,4.501152039E-2,4.899543478E-1
1.546293995E1,-2.218828201E-1,-4.447317421E-1,1.679801941E-2,4.972931548E-1
1.548085493E1,-2.355839014E-1,-4.292322993E-1,5.499458313E-2,4.927114222E-1
1.549876887E1,-2.158967257E-1,-4.280337095E-1,5.011940002E-2,4.820126626E-1
1.551668452E1,-2.392567545E-1,-4.318274856E-1,2.611351013E-2,4.943689789E-1
1.553460225E1,-2.383189052E-1,-4.356618524E-1,4.517173767E-2,4.986357750E-1
1.555251118E1,-2.188274264E-1,-4.442049861E-1,3.971385956E-2,4.967702717E-1
1.557043007E1,-2.710472941E-1,-4.388423562E-1,2.587223053E-2,5.164480822E-1
1.558834340E1,-2.178592086E-1,-4.562699199E-1,3.476238251E-2,5.068069630E-1
1.560625734E1,-2.316008806E-1,-4.453936219E-1,1.073741913E-2,5.021252220E-1
1.562416048E1,-2.312534750E-1,-4.680615664E-1,1.543712616E-2,5.223007797E-1
1.564208608E1,-2.115341127E-1,-4.286211729E-1,3.927898407E-2,4.795890212E-1
1.566000271E1,-2.302156687E-1,-4.273143411E-1,1.047325134E-2,4.854961268E-1
1.567791598E1,-2.391213179E-1,-4.167337418E-1,3.432083130E-2,4.816886293E-1
1.569583151E1,-2.050864697E-1,-4.157303572E-1,2.946090698E-2,4.644998762E-1
1.571374844E1,-2.240778506E-1,-4.147335887E-1,2.461051941E-2,4.720386747E-1
1.573165805E1,-2.328819484E-1,-4.044512808E-1,3.890323639E-2,4.683249964E-1
1.574957474E1,-2.084171772E-1,-4.179546237E-1,4.840946198E-2,4.695394161E-1
1.576749308E1,-2.271292508E-1,-4.171639085E-1,2.980422974E-2,4.759219634E-1
1.578540403E1,-2.026767731E-1,-4.309120774E-1,4.829883575E-2,4.786396038E-1
1.580332011E1,-2.112671435E-1,-4.253608286E-1,4.822540283E-2,4.773796497E-1
1.582123356E1,-2.062155604E-1,-4.484136403E-1,3.380870819E-2,4.947147450E-1
1.583914909E1,-2.057197988E-1,-4.233429730E-1,3.851222992E-2,4.722532162E-1
1.585706297E1,-2.052066028E-1,-4.366328716E-1,2.886390686E-2,4.833126726E-1
1.587497850E1,-2.048242688E-1,-4.210312068E-1,2.399444580E-2,4.688240519E-1
1.589289256E1,-1.995531023E-1,-4.246709347E-1,2.391242981E-2,4.698283172E-1
1.591080779E1,-2.038863897E-1,-4.092656970E-1,3.341007233E-2,4.584586171E-1
1.592872167E1,-2.034459114E-1,-4.033920169E-1,2.436065674E-2,4.524475658E-1
1.594662567E1,-1.983258426E-1,-4.024733305E-1,3.326988220E-2,4.499164441E-1
1.596455084E1,-2.073664069E-1,-3.967832923E-1,3.320312500E-2,4.489323504E-1
1.598246722E1,-1.973864436E-1,-3.959352970E-1,5.707073212E-2,4.460753703E-1
1.600038055E1,-2.109918743E-1,-3.854341805E-1,2.828121185E-2,4.403145529E-1
1.601828302E1,-2.105589956E-1,-4.131996334E-1,4.735755920E-2,4.661671010E-1
1.603620331E1,-2.054976225E-1,-3.979961276E-1,4.251384735E-2,4.499306809E-1
1.605412561E1,-2.097924501E-1,-4.257830977E-1,2.809047699E-2,4.754925797E-1
1.607203956E1,-2.283374667E-1,-4.208404422E-1,3.760147095E-2,4.802692444E-1
1.608995539E1,-2.038874328E-1,-4.193291664E-1,1.839256287E-2,4.666318907E-1
1.610786909E1,-2.130401433E-1,-4.228707552E-1,1.352310181E-2,4.736967939E-1
1.612577784E1,-2.172344923E-1,-4.122942090E-1,2.302074432E-2,4.665911423E-1
1.614369551E1,-2.216850966E-1,-4.014808536E-1,3.250980377E-2,4.597695566E-1
1.616161702E1,-2.117036581E-1,-3.955197930E-1,1.807498932E-2,4.489777843E-1
1.617952803E1,-2.162841856E-1,-3.847997189E-1,2.757453918E-2,4.422782244E-1
1.619744344E1,-2.012233436E-1,-3.789861500E-1,1.792621613E-2,4.294679093E-1
1.621535714E1,-1.960488260E-1,-3.684729934E-1,4.178905487E-2,4.194684900E-1
1.623327315E1,-2.197554260E-1,-3.723019063E-1,5.608654022E-2,4.359436394E-1
1.625118710E1,-1.665847450E-1,-3.906033039E-1,3.628349304E-2,4.261899930E-1
1.626910220E1,-2.043986171E-1,-3.898699284E-1,4.161262512E-2,4.421639586E-1
1.628701651E1,-2.043084055E-1,-4.038433731E-1,5.531406403E-2,4.559506993E-1
1.630493204E1,-1.848963499E-1,-3.976565301E-1,4.090404510E-2,4.404435458E-1
1.632284598E1,-1.894615293E-1,-4.062979817E-1,3.605937958E-2,4.497488187E-1
1.634076151E1,-1.986441612E-1,-4.153485298E-1,3.120040894E-2,4.614622081E-1
1.635867014E1,-1.885512769E-1,-3.993166685E-1,2.155494690E-2,4.421198950E-1
1.637658903E1,-2.074424028E-1,-4.029694796E-1,2.148437500E-2,4.537381738E-1
1.639450706E1,-2.026486248E-1,-3.873557448E-1,2.141380310E-2,4.376865193E-1
1.641242039E1,-1.880568564E-1,-3.813206553E-1,2.133750916E-2,4.257066040E-1
1.643033421E1,-2.020911425E-1,-3.705804348E-1,1.707553864E-2,4.224479407E-1
1.644824028E1,-1.920062006E-1,-3.598155081E-1,4.092311859E-2,4.098881342E-1
1.646615282E1,-2.011435479E-1,-3.636107147E-1,2.590274811E-2,4.163441257E-1
1.648408196E1,-1.910507083E-1,-3.722757101E-1,3.540897369E-2,4.199325814E-1
1.650199315E1,-1.908879578E-1,-3.571626842E-1,4.971981049E-2,4.080140377E-1
1.651990612E1,-1.856960654E-1,-3.849931061E-1,3.051757812E-2,4.285254287E-1
1.653783282E1,-1.811930239E-1,-3.938344717E-1,4.962635040E-2,4.363476569E-1
1.655573528E1,-1.904531717E-1,-4.076886177E-1,3.041553497E-2,4.510072332E-1
1.657365252E1,-1.852007806E-1,-4.012243748E-1,3.512954712E-2,4.432994621E-1
1.659157074E1,-1.943146586E-1,-4.010109305E-1,3.028774261E-2,4.466377731E-1
1.660948199E1,-1.892096400E-1,-4.093749821E-1,2.064132690E-2,4.514578920E-1
1.662739728E1,-1.793924570E-1,-3.933643699E-1,3.014850616E-2,4.333891018E-1
1.664531134E1,-2.028508484E-1,-3.928522468E-1,3.007507324E-2,4.431544477E-1
1.666322712E1,-1.977260858E-1,-3.673887253E-1,1.565837860E-2,4.175107966E-1
1.668114094E1,-1.971301287E-1,-3.667283058E-1,2.514553070E-2,4.171117784E-1
1.669905646E1,-2.060893476E-1,-3.514667749E-1,3.943729401E-2,4.093372854E-1
1.671697029E1,-1.913239360E-1,-3.354905248E-1,2.022933960E-2,3.867401801E-1
1.673488624E1,-2.098403126E-1,-3.352246881E-1,4.887962341E-2,3.984943737E-1
1.675280012E1,-1.902289391E-1,-3.480360210E-1,5.360221863E-2,4.002365788E-1
1.677071541E1,-1.850514114E-1,-3.516503572E-1,2.481460571E-2,3.981428930E-1
1.678862941E1,-1.894791126E-1,-3.698916733E-1,3.911304474E-2,4.174350421E-1
1.680654531E1,-1.746313274E-1,-3.689984977E-1,2.948188782E-2,4.092983918E-1
1.682445931E1,-1.791309416E-1,-3.681596816E-1,3.361701965E-2,4.108035411E-1
1.684237459E1,-1.882823408E-1,-3.917867541E-1,1.920032501E-2,4.351043013E-1
1.686028182E1,-1.736891568E-1,-3.759780526E-1,1.914882660E-2,4.146011297E-1
1.687820431E1,-1.779640615E-1,-3.846210241E-1,9.515762329E-3,4.239045755E-1
1.689611838E1,-1.966693401E-1,-3.691067696E-1,2.439785004E-2,4.189437812E-1
1.691402322E1,-1.869007647E-1,-3.630191982E-1,2.432346344E-2,4.090311296E-1
1.693194791E1,-2.008685470E-1,-3.523854613E-1,2.485561371E-2,4.063760427E-1
1.694985135E1,-1.764013767E-1,-3.513254523E-1,2.897262573E-2,3.941908576E-1
1.696777463E1,-1.948861778E-1,-3.312840760E-1,3.369426727E-2,3.858303577E-1
1.698569559E1,-1.896282583E-1,-3.547402024E-1,2.884006500E-2,4.032756339E-1
1.700360673E1,-1.843241751E-1,-3.437970281E-1,3.835773468E-2,3.919733586E-1
1.702152280E1,-1.839301586E-1,-3.475837708E-1,2.872467041E-2,3.942967000E-1
1.703943669E1,-1.691499650E-1,-3.515710235E-1,3.824234009E-2,3.920157800E-1
1.705735185E1,-1.878554672E-1,-3.609767258E-1,2.862071991E-2,4.079375182E-1
1.707526573E1,-1.824887842E-1,-3.603731096E-1,4.293155670E-2,4.062192179E-1
1.709318169E1,-1.533921361E-1,-3.684544563E-1,1.356315613E-2,3.993391954E-1
1.711109587E1,-1.819202751E-1,-3.631783128E-1,2.785873413E-2,4.071481087E-1
1.712901110E1,-1.911605299E-1,-3.574261963E-1,3.258609772E-2,4.066419651E-1
1.714692516E1,-1.620951891E-1,-3.558112383E-1,1.816749573E-2,3.914160772E-1
1.716484069E1,-1.857824624E-1,-3.504577279E-1,2.348518372E-2,3.973503444E-1
1.718275482E1,-1.854855269E-1,-3.541757166E-1,2.282428741E-2,4.004575721E-1
1.720067016E1,-1.709317863E-1,-3.284307718E-1,3.232860565E-2,3.716578886E-1
1.721858441E1,-1.991540939E-1,-3.278683722E-1,3.285408020E-2,3.850187180E-1
1.723650012E1,-1.749605834E-1,-3.168309033E-1,3.699016571E-2,3.638149247E-1
1.725441400E1,-1.649881601E-1,-3.350085020E-1,2.735996246E-2,3.744333812E-1
1.727232209E1,-1.980004758E-1,-3.251452148E-1,4.225635529E-2,3.830263681E-1
1.729024347E1,-1.640377939E-1,-3.189435303E-1,4.639148712E-2,3.616428396E-1
1.730815931E1,-1.635855734E-1,-3.372194171E-1,2.719402313E-2,3.757880919E-1
1.732607343E1,-1.824418902E-1,-3.417745829E-1,2.295684814E-2,3.881004067E-1
1.734398866E1,-1.675738990E-1,-3.598801494E-1,4.143619537E-2,3.991386875E-1
1.736189076E1,-1.527771503E-1,-3.537477851E-1,2.224540710E-2,3.859704798E-1
1.737981673E1,-1.716421247E-1,-3.631455898E-1,1.741218567E-2,4.020434337E-1
1.739773415E1,-1.571153700E-1,-3.572273254E-1,2.213764191E-2,3.908793634E-1
1.741564778E1,-1.710522175E-1,-3.513268530E-1,3.164291382E-2,3.920340454E-1
1.743356191E1,-1.758778542E-1,-3.645355105E-1,3.158569336E-2,4.059763713E-1
1.745147774E1,-1.562984139E-1,-3.530343771E-1,7.579803467E-3,3.861604835E-1
1.746939169E1,-1.798314005E-1,-3.333183527E-1,2.665424347E-2,3.796721027E-1
1.748730709E1,-1.792230904E-1,-3.179369569E-1,4.094505310E-2,3.672619257E-1
1.750522110E1,-1.789399236E-1,-3.073150516E-1,2.652931213E-2,3.566031991E-1
1.752313711E1,-1.738828570E-1,-3.159176111E-1,2.647495270E-2,3.615800162E-1
1.754105093E1,-1.687085629E-1,-3.199962974E-1,3.121566772E-2,3.630903846E-1
1.755896646E1,-1.636090875E-1,-3.043788373E-1,2.639007568E-2,3.465701173E-1
1.757688028E1,-1.825982928E-1,-3.233447671E-1,3.591918945E-2,3.730739379E-1
1.759479600E1,-1.724690050E-1,-3.274540901E-1,1.672935486E-2,3.704748441E-1
1.761271012E1,-1.673023999E-1,-3.363238573E-1,2.565860748E-2,3.765132058E-1
1.763062565E1,-1.622605026E-1,-3.499443531E-1,2.083015442E-2,3.862944684E-1
1.764853978E1,-1.904900521E-1,-3.251802921E-1,3.573322296E-2,3.785571893E-1
1.766645549E1,-1.613880396E-1,-3.624217212E-1,2.550220490E-2,3.975499538E-1
1.768435399E1,-1.037202924E-1,-3.607333004E-1,1.108741760E-2,3.755121089E-1
1.770228496E1,-1.512581855E-1,-3.267799020E-1,3.495597839E-2,3.617817898E-1
1.772019896E1,-1.653725803E-1,-3.111972213E-1,4.446220398E-2,3.552023204E-1
1.773811467E1,-1.413548440E-1,-2.858318686E-1,4.920482635E-2,3.226486696E-1
1.775602856E1,-1.555801928E-1,-2.897723019E-1,1.625919342E-2,3.292985647E-1
1.777393035E1,-1.362526417E-1,-2.843155265E-1,1.143550873E-2,3.154851372E-1
1.779186035E1,-1.597813666E-1,-2.644439638E-1,4.967689514E-2,3.129352792E-1
1.780977496E1,-1.642978787E-1,-2.734802961E-1,3.528785706E-2,3.209836416E-1
1.782768847E1,-1.544277966E-1,-2.681759596E-1,1.611232758E-2,3.098804556E-1
1.784560346E1,-1.636218429E-1,-3.064382076E-1,3.940486908E-2,3.496129664E-1
1.786351758E1,-1.490366012E-1,-3.202440739E-1,2.022933960E-2,3.538041853E-1
1.788143348E1,-1.488623172E-1,-3.290798962E-1,2.497577667E-2,3.620460703E-1
1.789934772E1,-1.727294475E-1,-3.520031273E-1,2.492523193E-2,3.928904820E-1
1.791726258E1,-1.345760822E-1,-3.512163758E-1,5.748748779E-3,3.761604879E-1
1.793517695E1,-1.630640030E-1,-3.501506150E-1,2.962112427E-2,3.873922215E-1
1.795309272E1,-1.771432161E-1,-3.490381837E-1,1.998996735E-2,3.919272528E-1
1.797100685E1,-1.290698647E-1,-3.433160782E-1,1.515483856E-2,3.670894015E-1
1.798892207E1,-1.625425816E-1,-3.277977407E-1,7.419586182E-4,3.658852281E-1
1.800683614E1,-1.718892008E-1,-3.077098131E-1,1.504802704E-2,3.527855858E-1
1.802474916E1,-1.714418083E-1,-2.973289788E-1,1.499938965E-2,3.435430060E-1
1.804266896E1,-1.755752563E-1,-2.820375562E-1,2.989578247E-2,3.335650035E-1
1.806058175E1,-1.750891209E-1,-2.956378758E-1,5.920410156E-3,3.436466282E-1
1.807849563E1,-1.650598943E-1,-2.804057002E-1,1.543903351E-2,3.257460501E-1
1.809641110E1,-1.786944866E-1,-2.653729916E-1,3.931999207E-2,3.223361692E-1
1.811432241E1,-1.638228446E-1,-2.741928697E-1,1.474571228E-2,3.197453522E-1
1.813224392E1,-1.679580063E-1,-2.927482724E-1,9.917259216E-3,3.376533650E-1
1.815015494E1,-1.673828959E-1,-2.968232632E-1,4.337024689E-2,3.435142817E-1
1.816807108E1,-1.430980265E-1,-2.960130572E-1,9.824752808E-3,3.289335815E-1
1.818596927E1,-1.664558500E-1,-2.952036858E-1,9.773254395E-3,3.390402374E-1
1.820389731E1,-1.661583930E-1,-2.942855954E-1,4.322433472E-2,3.407065693E-1
1.822181748E1,-1.611372083E-1,-2.934212089E-1,9.678840637E-3,3.348953354E-1
1.823973045E1,-1.610677689E-1,-3.258660138E-1,9.628295898E-3,3.636264418E-1
1.825764433E1,-1.559587717E-1,-2.912430167E-1,1.914024353E-2,3.309259467E-1
1.827554808E1,-1.696885824E-1,-2.998781800E-1,2.865505219E-2,3.457488248E-1
1.829347356E1,-1.790942252E-1,-2.940656543E-1,2.381706238E-2,3.451327324E-1
1.831138963E1,-1.600326598E-1,-2.980307937E-1,2.378082275E-2,3.391140423E-1
1.832930382E1,-1.500423253E-1,-3.116912246E-1,9.383201599E-3,3.460522552E-1
1.834721892E1,-1.591599137E-1,-2.965213358E-1,2.847862244E-2,3.377392673E-1
1.836513311E1,-1.634784192E-1,-2.767226696E-1,3.800964355E-2,3.236438821E-1
1.838304906E1,-1.343144923E-1,-2.903383374E-1,9.250640869E-3,3.200348534E-1
1.840096319E1,-1.626152247E-1,-2.992499471E-1,4.426002502E-3,3.406080322E-1
1.841886810E1,-1.524266899E-1,-2.794509232E-1,1.395320892E-2,3.186242400E-1
1.843678857E1,-1.377673745E-1,-2.787932456E-1,-4.396438599E-4,3.109754275E-1
1.845471246E1,-1.661606431E-1,-2.733646035E-1,1.866626740E-2,3.204465561E-1
1.847262256E1,-1.511545777E-1,-2.726171017E-1,4.261970520E-3,3.117466197E-1
1.849053791E1,-1.314035654E-1,-2.719268203E-1,1.378822327E-2,3.023263265E-1
1.850845160E1,-1.452811360E-1,-2.856621742E-1,8.963584900E-3,3.206085341E-1
1.852636604E1,-1.258668602E-1,-2.753380537E-1,8.923530579E-3,3.028747921E-1
1.854428370E1,-1.160615534E-1,-2.740373015E-1,2.803039551E-2,2.989187680E-1
1.856219728E1,-1.538881063E-1,-2.693783641E-1,4.235458374E-2,3.131136584E-1
1.858011165E1,-1.201409101E-1,-2.735704780E-1,4.232215881E-2,3.017711216E-1
1.859802272E1,-1.246551424E-1,-2.873536646E-1,3.750514984E-2,3.154642125E-1
1.861593813E1,-1.240769476E-1,-2.770208716E-1,4.702949524E-2,3.071602606E-1
1.863386000E1,-1.237058342E-1,-2.813531160E-1,4.221630096E-2,3.102336625E-1
1.865177102E1,-1.282107383E-1,-2.903429866E-1,3.261280060E-2,3.190621225E-1
1.866968648E1,-1.423080266E-1,-2.946932912E-1,4.694461823E-2,3.306047602E-1
1.868759835E1,-1.135168523E-1,-3.034336567E-1,-9.508132935E-4,3.239737085E-1
1.870551632E1,-1.181681156E-1,-3.026611209E-1,-1.055908203E-2,3.250829923E-1
1.872343002E1,-1.421051025E-1,-2.874637246E-1,1.811695099E-2,3.211813772E-1
1.874134616E1,-1.466082335E-1,-2.772966027E-1,-1.057624817E-3,3.136694097E-1
1.875926041E1,-1.463054121E-1,-2.670247257E-1,-1.545238495E-2,3.048708807E-1
1.877717557E1,-1.650907397E-1,-2.662772536E-1,8.434295654E-3,3.134161219E-1
1.879508957E1,-1.456898451E-1,-2.513743639E-1,-1.552200317E-2,2.909562413E-1
1.881300577E1,-1.594806612E-1,-2.411767840E-1,1.315116882E-2,2.894361340E-1
1.883091966E1,-1.686180085E-1,-2.408183813E-1,1.312637329E-2,2.942750877E-1
1.884883524E1,-1.439996362E-1,-2.546190321E-1,1.787185669E-2,2.930633891E-1
1.886674937E1,-1.478913575E-1,-2.493380457E-1,1.304626465E-2,2.901922116E-1
1.888466508E1,-1.566872597E-1,-2.681008577E-1,3.694152832E-2,3.127197528E-1
1.890257921E1,-1.223981678E-1,-2.819862366E-1,4.587650299E-2,3.108089488E-1
1.892049419E1,-1.124375165E-1,-3.006095290E-1,2.670192719E-2,3.220578783E-1
1.893839690E1,-1.308110952E-1,-3.191826940E-1,4.581737518E-2,3.479775375E-1
1.895632464E1,-1.069913805E-1,-3.090732694E-1,3.621101379E-2,3.290663745E-1
1.897423888E1,-1.208788306E-1,-3.227478266E-1,2.673149109E-3,3.446519940E-1
1.899215404E1,-1.351520717E-1,-3.029773831E-1,1.700019836E-2,3.321902827E-1
1.901005602E1,-1.254315078E-1,-2.781647444E-1,3.199577332E-3,3.051539373E-1
1.902798370E1,-1.491857320E-1,-2.680602670E-1,-2.075576782E-2,3.074792534E-1
1.904589856E1,-1.441429257E-1,-2.530453801E-1,7.327079773E-3,2.913122612E-1
1.906381354E1,-1.294099689E-1,-2.332975864E-1,-2.082347870E-2,2.675973115E-1
1.908172125E1,-1.623402387E-1,-2.329012156E-1,2.221870422E-2,2.847648155E-1
1.909963190E1,-1.524361968E-1,-2.179759294E-1,1.261520386E-2,2.662882710E-1
1.911755750E1,-1.328478158E-1,-2.318377197E-1,-1.770973206E-3,2.672085455E-1
1.913547297E1,-1.227211803E-1,-2.313905656E-1,2.212524414E-2,2.628528265E-1
1.915338703E1,-1.363031268E-1,-2.453747094E-1,2.687931061E-2,2.819747998E-1
1.917130311E1,-1.164432913E-1,-2.641997933E-1,1.727962494E-2,2.892389260E-1
1.918921712E1,-1.160998642E-1,-2.541776896E-1,2.203845978E-2,2.803054942E-1
1.920713264E1,-1.204165071E-1,-2.776499093E-1,1.662635803E-2,3.030941159E-1
1.922504652E1,-1.104031056E-1,-2.726360559E-1,1.182079315E-2,2.943790004E-1
1.924296248E1,-1.196167469E-1,-2.721933126E-1,2.136611938E-2,2.980836739E-1
1.926087801E1,-1.287459135E-1,-2.620488405E-1,1.235866547E-2,2.922290911E-1
1.927879037E1,-1.140443534E-1,-2.708639503E-1,7.534027100E-3,2.939900605E-1
1.929670620E1,-1.327343583E-1,-2.561109662E-1,2.722740173E-3,2.884764292E-1
1.931462167E1,-1.373316050E-1,-2.554467916E-1,2.183246613E-2,2.908430671E-1
1.933252481E1,-1.321060658E-1,-2.357455641E-1,2.657890320E-3,2.702499731E-1
1.935045138E1,-1.508615017E-1,-2.402269840E-1,2.656555176E-2,2.849103808E-1
1.936836551E1,-1.361547112E-1,-2.398724258E-1,-6.956100464E-3,2.759080887E-1
1.938628153E1,-1.309815347E-1,-2.443969399E-1,2.596855164E-3,2.772954567E-1
1.940419571E1,-1.594017744E-1,-2.342685610E-1,1.213741302E-2,2.836159395E-1
1.942211069E1,-1.252152026E-1,-2.389652133E-1,2.548217773E-3,2.697956885E-1
1.944002061E1,-1.198594645E-1,-2.483171523E-1,7.313728333E-3,2.758281892E-1
1.945794517E1,-1.384399384E-1,-2.480960786E-1,2.164936066E-2,2.849315279E-1
1.947585490E1,-1.137967259E-1,-2.574778199E-1,-2.898216248E-3,2.815189554E-1
1.949376603E1,-1.130837500E-1,-2.524617314E-1,6.649017334E-3,2.767111667E-1
1.951167900E1,-1.267982721E-1,-2.471937835E-1,2.157020569E-2,2.786536241E-1
1.952959770E1,-1.122131795E-1,-2.513763309E-1,1.137161255E-2,2.755198195E-1
1.954751738E1,-1.214197204E-1,-2.366184890E-1,1.673126221E-2,2.664788790E-1
1.956542699E1,-1.303460151E-1,-2.408830374E-1,2.340316772E-3,2.738981535E-1
1.958334148E1,-1.251859963E-1,-2.358065248E-1,-2.465248108E-3,2.669875058E-1
1.960125982E1,-1.296411455E-1,-2.165308744E-1,-2.477645874E-3,2.523857858E-1
1.961917425E1,-1.483982503E-1,-2.114121020E-1,2.142906189E-2,2.591839545E-1
1.963707739E1,-1.194418445E-1,-2.349940836E-1,-1.268768311E-2,2.639120135E-1
1.965500635E1,-1.286403537E-1,-2.250479907E-1,7.029533386E-3,2.593151616E-1
1.967291956E1,-1.328788251E-1,-2.296080142E-1,1.658058167E-2,2.658035704E-1
1.969083350E1,-1.038026959E-1,-2.294366807E-1,6.995201111E-3,2.519228512E-1
1.970874884E1,-1.226375178E-1,-2.482506484E-1,2.611923218E-2,2.781196855E-1
1.972666303E1,-1.222261116E-1,-2.622948885E-1,1.174068451E-2,2.896129737E-1
1.974457874E1,-8.346115053E-2,-2.714273632E-1,6.329536438E-3,2.840398566E-1
1.976249275E1,-1.164507195E-1,-2.807471156E-1,1.109409332E-2,3.041427164E-1
1.978040864E1,-1.065507233E-1,-2.757273316E-1,-1.284980774E-2,2.958779066E-1
1.979832240E1,-1.017148197E-1,-2.754944563E-1,-3.289222717E-3,2.936901751E-1
1.981623848E1,-1.298813075E-1,-2.799784839E-1,-7.499694824E-3,3.087286040E-1
1.983415230E1,-9.565819800E-2,-2.795214355E-1,-3.684425354E-2,2.977250792E-1
1.985206539E1,-9.529864788E-2,-2.552018166E-1,1.418113708E-3,2.724184474E-1
1.986998440E1,-1.233144552E-1,-2.548633814E-1,-7.582664490E-3,2.832301093E-1
1.988789785E1,-1.085685715E-1,-2.210065275E-1,1.153755188E-2,2.465038236E-1
1.990581228E1,-1.224462241E-1,-2.398481369E-1,2.108669281E-2,2.701200755E-1
1.992372079E1,-1.170371547E-1,-2.106954902E-1,2.105712891E-2,2.419373635E-1
1.994163864E1,-9.754891694E-2,-2.341208011E-1,1.624488831E-2,2.541500287E-1
1.995956027E1,-1.114084944E-1,-2.146869600E-1,3.536510468E-2,2.444443373E-1
1.997747159E1,-1.161624119E-1,-2.288317680E-1,1.621341705E-2,2.571391819E-1
1.999538687E1,-1.017073691E-1,-2.333922237E-1,1.620197296E-2,2.551055134E-1
2.001330100E1,-9.651392698E-2,-2.427618653E-1,1.829147339E-3,2.612500854E-1
2.003121665E1,-1.057605818E-1,-2.569335699E-1,-1.732635498E-2,2.783888694E-1
2.004913090E1,-1.054324433E-1,-2.470446080E-1,-1.734542847E-2,2.691614800E-1
2.006704624E1,-1.098729298E-1,-2.562215328E-1,-3.010749817E-3,2.788020789E-1
2.008496067E1,-1.145180836E-1,-2.415089458E-1,-1.259994507E-2,2.675812419E-1
2.010287639E1,-9.501685202E-2,-2.648591995E-1,-1.741600037E-2,2.819253710E-1
2.012079045E1,-1.043631360E-1,-2.309801430E-1,-7.863998413E-3,2.535849622E-1
2.013870604E1,-1.132521257E-1,-2.258304358E-1,-3.106117249E-3,2.526560461E-1
2.015661687E1,-1.170858294E-1,-2.063172907E-1,1.600265503E-2,2.377645912E-1
2.017453289E1,-1.018754765E-1,-2.250405550E-1,1.118469238E-2,2.472791165E-1
2.019245281E1,-1.010732725E-1,-2.055834383E-1,6.372451782E-3,2.291745288E-1
2.021036541E1,-1.145984083E-1,-2.055328935E-1,3.028297424E-2,2.372627743E-1
2.022827929E1,-1.188114136E-1,-1.910029799E-1,1.590919495E-2,2.255025339E-1
2.024619403E1,-1.089666262E-1,-2.051483840E-1,-3.247261047E-3,2.323147214E-1
2.026410748E1,-9.888481349E-2,-2.193069011E-1,1.109218597E-2,2.408251644E-1
2.028202673E1,-8.903960884E-2,-2.137954235E-1,1.510620117E-3,2.316005549E-1
2.029993884E1,-1.031364128E-1,-2.238643467E-1,1.107311249E-2,2.467285537E-1
2.031785498E1,-1.126922369E-1,-2.188303620E-1,-3.293037415E-3,2.461648059E-1
2.033575196E1,-9.814440459E-2,-2.425009161E-1,-1.287841797E-2,2.619253178E-1
2.035368152E1,-1.166713387E-1,-2.564563751E-1,-1.290607452E-2,2.820436852E-1
2.037160139E1,-1.209488139E-1,-2.653861046E-1,-3.208351135E-2,2.934071434E-1
2.038951429E1,-1.254727840E-1,-2.265662700E-1,-8.181571960E-3,2.591189541E-1
2.040742848E1,-1.201179698E-1,-2.358434647E-1,-1.298904419E-2,2.649890220E-1
2.042534370E1,-1.099981070E-1,-2.060520202E-1,-2.259063721E-2,2.346643464E-1
2.044325777E1,-1.091967523E-1,-2.205420434E-1,-8.266448975E-3,2.462337463E-1
2.046117384E1,-1.084036529E-1,-1.962096989E-1,1.084613800E-2,2.244264615E-1
2.047908785E1,-9.799537808E-2,-1.912487894E-1,2.518177032E-2,2.163638490E-1
2.049700313E1,-9.244992584E-2,-1.712775677E-1,2.575778961E-2,1.963325183E-1
2.051491726E1,-8.246329427E-2,-1.950195581E-1,6.001472473E-3,2.118226631E-1
2.053283315E1,-6.762106717E-2,-2.046477944E-1,1.078128815E-2,2.157998254E-1
2.055074710E1,-8.617283404E-2,-2.003148049E-1,2.033615112E-2,2.190099026E-1
2.056865060E1,-1.191610321E-1,-2.096589953E-1,2.510452271E-2,2.424592397E-1
2.058657388E1,-7.601414621E-2,-2.136108279E-1,1.165390015E-3,2.267357368E-1
2.060449570E1,-9.964624792E-2,-2.379425019E-1,1.152992249E-3,2.579677079E-1
2.062240647E1,-1.042823792E-1,-2.377492934E-1,-8.428573608E-3,2.597510000E-1
2.064032200E1,-9.459396452E-2,-2.612041235E-1,1.121520996E-3,2.778072534E-1
2.065823118E1,-1.039544791E-1,-2.463664263E-1,-8.472442627E-3,2.675345436E-1
2.067615147E1,-1.037061065E-1,-2.409501374E-1,-1.328754425E-2,2.626565896E-1
2.069406639E1,-1.223868728E-1,-2.022985220E-1,6.429672241E-3,2.365260648E-1
2.071198143E1,-1.221408397E-1,-2.259029150E-1,-1.811218262E-2,2.574462330E-1
2.072989574E1,-1.068920642E-1,-2.159278095E-1,-8.572578430E-3,2.410896543E-1
2.074780705E1,-8.241149783E-2,-2.099406421E-1,5.750656128E-3,2.256098363E-1
2.076572270E1,-1.006786376E-1,-2.148158252E-1,-3.257751465E-3,2.372607000E-1
2.078364385E1,-7.641372085E-2,-2.090471387E-1,-3.876686096E-3,2.226090556E-1
2.080155511E1,-7.125094533E-2,-2.183151841E-1,1.046180725E-2,2.298862028E-1
2.081947100E1,-8.518972248E-2,-2.232774198E-1,5.652427673E-3,2.390440230E-1
2.083738507E1,-7.038708031E-2,-2.276852578E-1,1.998710632E-2,2.391535116E-1
2.085529760E1,-7.535912097E-2,-2.224898934E-1,3.433132172E-2,2.374013257E-1
2.087321722E1,-8.476809412E-2,-2.318335325E-1,1.996231079E-2,2.476507832E-1
2.089113043E1,-8.942835778E-2,-2.266744226E-1,1.994514465E-2,2.444924004E-1
2.090904443E1,-1.034149677E-1,-2.260886580E-1,1.034545898E-2,2.488328060E-1
2.092695972E1,-9.826374054E-2,-2.112398148E-1,1.510524750E-2,2.334656089E-1
2.094487171E1,-1.026748270E-1,-2.059789449E-1,-3.463745117E-3,2.301769827E-1
2.096279218E1,-1.164157987E-1,-2.007815391E-1,-3.490447998E-3,2.321164532E-1
2.098069880E1,-1.208044589E-1,-1.954368055E-1,-1.368808746E-2,2.301665179E-1
2.099861927E1,-1.061897054E-1,-1.758381873E-1,-8.924484253E-3,2.056087743E-1
2.101653334E1,-1.058128551E-1,-1.897051781E-1,-1.852035522E-2,2.180078404E-1
2.103444899E1,-1.149871200E-1,-1.796713322E-1,-1.375961304E-2,2.137595667E-1
2.105236336E1,-9.534066916E-2,-1.651009768E-1,5.807876587E-4,1.906528601E-1
2.107027120E1,-8.985189348E-2,-2.031784505E-1,-4.224777222E-3,2.221996720E-1
2.108819283E1,-7.956195623E-2,-1.686441749E-1,5.321502686E-4,1.864704958E-1
2.110610879E1,-7.899243385E-2,-1.928852499E-1,2.444076538E-2,2.098615621E-1
2.112402273E1,-7.896085829E-2,-1.974231154E-1,2.921676636E-2,2.146260074E-1
2.114193832E1,-6.439884007E-2,-1.915920228E-1,2.440929413E-2,2.035940260E-1
2.115983792E1,-6.413264573E-2,-2.204906195E-1,1.960372925E-2,2.304634803E-1
2.117776773E1,-7.341091335E-2,-2.247992605E-1,1.000881195E-2,2.366939924E-1
2.119568234E1,-7.308539748E-2,-2.097904235E-1,1.476383209E-2,2.226465088E-1
2.121359451E1,-8.260951191E-2,-2.094068080E-1,1.474857330E-2,2.255949093E-1
2.123151462E1,-8.715227991E-2,-2.086468488E-1,-1.399803162E-2,2.265501540E-1
2.124942759E1,-7.234917581E-2,-2.027902454E-1,-1.402378082E-2,2.157659688E-1
2.126734165E1,-8.140801638E-2,-2.029162347E-1,-1.404953003E-2,2.190882305E-1
2.128525712E1,-9.043300152E-2,-1.833538860E-1,2.813339233E-4,2.044427901E-1
2.130317118E1,-8.533353359E-2,-1.972517818E-1,9.830474854E-3,2.151434768E-1
2.132108720E1,-8.497797698E-2,-1.967390627E-1,5.020141602E-3,2.143658489E-1
2.133900108E1,-8.434464782E-2,-2.060401887E-1,4.999160767E-3,2.226916491E-1
2.135691655E1,-8.365992457E-2,-2.056124061E-1,9.757995605E-3,2.221951012E-1
2.137483061E1,-8.828595281E-2,-1.954837292E-1,4.323387146E-2,2.188091989E-1
2.139274614E1,-9.268611670E-2,-1.950821131E-1,3.364181519E-2,2.185852667E-1
2.141066070E1,-1.020100787E-1,-2.089994848E-1,3.362083435E-2,2.349834064E-1
2.142857604E1,-8.272134513E-2,-2.036301643E-1,1.445293427E-2,2.202656397E-1
2.144648980E1,-9.689641744E-2,-1.888359636E-1,5.460739136E-3,2.123152292E-1
2.146440582E1,-1.108213365E-1,-1.836793423E-1,1.501178741E-2,2.150460954E-1
2.148230822E1,-1.248871535E-1,-1.783750504E-1,5.415916443E-3,2.178159587E-1
2.150023535E1,-1.007090434E-1,-1.875127703E-1,-1.434421539E-2,2.133286361E-1
2.151814960E1,-1.001453474E-1,-1.774811298E-1,-1.437091827E-2,2.042918631E-1
2.153606543E1,-8.012972027E-2,-1.865652949E-1,-1.440334320E-2,2.035554903E-1
2.155397962E1,-7.457926124E-2,-1.666574478E-1,1.010513306E-2,1.828630221E-1
2.157188654E1,-8.842287958E-2,-1.954035163E-1,1.904869080E-2,2.153229956E-1
2.158980598E1,-4.525388777E-2,-2.040035576E-1,9.462356567E-3,2.091767244E-1
2.160772468E1,-4.510562122E-2,-2.130716741E-1,9.441375732E-3,2.179981535E-1
2.162564198E1,-5.439485610E-2,-2.036232352E-1,2.377700806E-2,2.121003734E-1
2.164355433E1,-5.415469408E-2,-2.080811411E-1,3.751945496E-2,2.182617733E-1
2.166146834E1,-5.853031576E-2,-2.030884624E-1,1.896095276E-2,2.122032967E-1
2.167938460E1,-6.294582784E-2,-2.074418515E-1,1.415252686E-2,2.172431656E-1
2.169729824E1,-6.752347201E-2,-1.973579675E-1,1.413059235E-2,2.090675973E-1
2.171521370E1,-7.165449113E-2,-1.873553842E-1,-5.037307739E-3,2.006533841E-1
2.173312771E1,-9.072572738E-2,-1.584552079E-1,9.311676025E-3,1.828275631E-1
2.175104385E1,-9.969605505E-2,-1.531138420E-1,9.282112122E-3,1.829461932E-1
2.176895785E1,-9.457760304E-2,-1.623705477E-1,4.479408264E-3,1.879605885E-1
2.178687344E1,-6.517808884E-2,-1.669353843E-1,-3.242492676E-4,1.792085682E-1
2.180477518E1,-7.936283946E-2,-1.569001526E-1,1.879882812E-2,1.768318809E-1
2.182270053E1,-6.925772876E-2,-1.517203748E-1,1.877593994E-2,1.678339687E-1
2.184062027E1,-7.366209477E-2,-1.705753654E-1,2.354621887E-2,1.872871697E-1
2.185853312E1,-6.860397011E-2,-1.989304721E-1,2.831459045E-2,2.123241708E-1
2.187644663E1,-4.436342418E-2,-2.083855718E-1,1.335048676E-2,2.134734069E-1
2.189435093E1,-5.374988914E-2,-2.080584317E-1,2.290725708E-2,2.161066959E-1
2.191225401E1,-6.820300967E-2,-2.029065639E-1,2.349281311E-2,2.153477106E-1
2.193019621E1,-7.758904994E-2,-1.927293688E-1,9.110450745E-3,2.079607429E-1
2.194810655E1,-7.225205749E-2,-2.066030949E-1,1.865577698E-2,2.196661937E-1
2.196602239E1,-1.006740928E-1,-2.011885792E-1,-5.130767822E-4,2.249719551E-1
2.198392491E1,-6.224272400E-2,-1.958422661E-1,-2.446460724E-2,2.069465315E-1
2.200184874E1,-1.098248139E-1,-1.667511910E-1,1.858806610E-2,2.005317074E-1
2.201976897E1,-1.188823730E-1,-1.615495086E-1,-5.362510681E-3,2.006489941E-1
2.203768151E1,-8.020317554E-2,-1.706253588E-1,4.184722900E-3,1.885817445E-1
2.205559588E1,-8.445792645E-2,-1.894899458E-1,-6.179809570E-4,2.074607500E-1
2.207351129E1,-9.341840446E-2,-1.747869998E-1,1.850223541E-2,1.990472967E-1
2.209142541E1,-7.372432947E-2,-1.601222157E-1,3.284072876E-2,1.793123370E-1
2.210934125E1,-7.344931364E-2,-1.883956641E-1,4.717826843E-2,2.076379468E-1
2.212725531E1,-5.873509496E-2,-2.023324221E-1,2.741622925E-2,2.124614555E-1
2.214517078E1,-2.958273888E-2,-2.018053681E-1,3.217601776E-2,2.064844816E-1
2.216308460E1,-6.765339524E-2,-1.966120452E-1,4.173088074E-2,2.120724985E-1
2.218100092E1,-6.250125915E-2,-1.961570233E-1,2.735137939E-2,2.076826501E-1
2.219891474E1,-4.320652783E-2,-1.908758283E-1,2.733135223E-2,1.976041211E-1
2.221681819E1,-5.726040155E-2,-2.000350803E-1,1.295566559E-2,2.084721473E-1
2.223474134E1,-7.639086246E-2,-1.848784238E-1,-8.325576782E-4,2.000407174E-1
2.225266334E1,-5.706336349E-2,-1.652542949E-1,1.350498199E-2,1.753499186E-1
2.227057454E1,-8.539820462E-2,-1.600553840E-1,2.784156799E-2,1.835367326E-1
2.228848970E1,-1.042259857E-1,-1.405527294E-1,8.681297302E-3,1.751955786E-1
2.230640419E1,-7.457254827E-2,-1.546193957E-1,3.872871399E-3,1.717067897E-1
2.232431807E1,-9.336677194E-2,-1.495568305E-1,2.300071716E-2,1.778022290E-1
2.234223574E1,-7.856807858E-2,-1.490117759E-1,-6.337165833E-3,1.685752413E-1
2.236014962E1,-6.396492571E-2,-1.627856791E-1,4.568290710E-2,1.807695136E-1
2.237805166E1,-6.338416785E-2,-1.862841547E-1,3.130149841E-2,1.992463872E-1
2.239597671E1,-3.915433586E-2,-1.906305999E-1,3.128242493E-2,1.971082893E-1
2.241389053E1,-2.909135818E-2,-2.140557766E-1,3.125762939E-2,2.182732737E-1
2.243181192E1,-4.795485735E-2,-2.277685851E-1,2.165985107E-2,2.337677177E-1
2.244972312E1,-4.842567444E-2,-1.986039579E-1,3.122138977E-2,2.067930202E-1
2.246763913E1,-5.794822425E-2,-2.076388896E-1,4.077243805E-2,2.193952982E-1
2.248555283E1,-6.246774644E-2,-2.118773460E-1,1.203632355E-2,2.212218393E-1
2.250346873E1,-4.294274747E-2,-1.779777259E-1,7.829666138E-3,1.832524328E-1
2.252138255E1,-6.664416194E-2,-1.680817157E-1,1.738548279E-2,1.816457059E-1
2.253929875E1,-9.030069411E-2,-1.340816617E-1,3.605842590E-3,1.616944942E-1
2.255721263E1,-8.492787182E-2,-1.098215580E-1,2.272891998E-2,1.406773678E-1
2.257512810E1,-7.561335713E-2,-1.380721480E-1,1.733207703E-2,1.583720263E-1
2.259304241E1,-7.527073473E-2,-1.187345684E-1,3.561973572E-3,1.406281227E-1
2.261095830E1,-7.931775600E-2,-1.232835054E-1,1.311492920E-2,1.471806050E-1
2.262887200E1,-7.415156811E-2,-1.370770186E-1,3.642082214E-2,1.600469943E-1
2.264678796E1,-6.400781870E-2,-1.366762370E-1,1.247024536E-2,1.514361305E-1
2.266470172E1,-5.945780128E-2,-2.030973732E-1,2.142620087E-2,2.127036794E-1
2.268261785E1,-5.432666093E-2,-2.025770545E-1,7.046699524E-3,2.098535324E-1
2.270053198E1,-4.946853966E-2,-2.067801058E-1,1.599884033E-2,2.132161145E-1
2.271844452E1,-4.901314527E-2,-2.163406461E-1,3.990745544E-2,2.253844906E-1
2.273636048E1,-5.918397754E-2,-2.061376274E-1,1.595687866E-2,2.150583330E-1
2.275427838E1,-6.867958605E-2,-2.007879168E-1,6.363868713E-3,2.123044321E-1
2.277219166E1,-6.828854978E-2,-1.755522788E-1,2.128982544E-2,1.895657809E-1
2.279010706E1,-7.759764045E-2,-1.511936784E-1,-2.656936646E-3,1.699646478E-1
2.280800343E1,-9.165716171E-2,-1.124755442E-1,2.709388733E-3,1.451176217E-1
2.282593714E1,-9.625139087E-2,-1.215837449E-1,2.661800385E-2,1.573386647E-1
2.284385414E1,-8.174037933E-2,-1.020862460E-1,2.676010132E-3,1.308061630E-1
2.286176680E1,-7.649568468E-2,-1.066624075E-1,-6.908416748E-3,1.314389028E-1
2.287968086E1,-7.160598785E-2,-1.062345952E-1,3.614616394E-2,1.331155584E-1
2.289759670E1,-5.234608054E-2,-1.254347265E-1,1.640605927E-2,1.369055935E-1
2.291550789E1,-5.217715353E-2,-1.298889667E-1,3.074836731E-2,1.433145530E-1
2.293342910E1,-2.836028486E-2,-1.917129010E-1,2.595138550E-2,1.955290684E-1
2.295134048E1,-2.809318155E-2,-1.772746891E-1,2.115917206E-2,1.807297784E-1
2.296925668E1,-3.763625771E-2,-2.054042071E-1,3.071022034E-2,2.110698790E-1
2.298717062E1,-3.235010058E-2,-2.143142074E-1,3.966236115E-2,2.203411251E-1
2.300508615E1,-3.786859661E-2,-2.040594667E-1,1.571178436E-2,2.081373506E-1
2.302300027E1,-1.891405880E-2,-2.080437839E-1,-3.456115723E-3,2.089303769E-1
2.304090451E1,-5.256735533E-2,-1.928733587E-1,1.147365570E-2,2.002376192E-1
2.305883036E1,-6.708012521E-2,-1.538790613E-1,1.880645752E-3,1.678750891E-1
2.307674564E1,-1.099269688E-1,-1.103223264E-1,-7.112503052E-3,1.559023473E-1
2.309465989E1,-9.524155408E-2,-1.049026847E-1,-2.352714539E-3,1.417076644E-1
2.311257566E1,-8.953917027E-2,-9.021954238E-2,-7.160186768E-3,1.273110251E-1
2.313047349E1,-7.982163876E-2,-1.090385616E-1,2.397537231E-3,1.351541716E-1
2.314840538E1,-9.882381558E-2,-9.444642067E-2,4.545879364E-2,1.440582341E-1
2.316631944E1,-7.514599711E-2,-1.229091436E-1,2.092647552E-2,1.455729914E-1
2.318423570E1,-5.566915870E-2,-1.272651404E-1,6.551742554E-3,1.390625633E-1
2.320214965E1,-7.349862903E-2,-1.753230393E-1,2.985954285E-2,1.924365061E-1
2.322004955E1,-4.007980973E-2,-1.601190418E-1,2.505874634E-2,1.669504102E-1
2.323797747E1,-5.424762517E-2,-1.741398126E-1,2.025985718E-2,1.835155061E-1
2.325589684E1,-5.373512208E-2,-1.885569245E-1,2.981281281E-2,1.983178785E-1
2.327380938E1,-3.998791426E-2,-1.873718798E-1,2.022266388E-2,1.926556793E-1
2.329172491E1,-3.495447338E-2,-1.915624440E-1,-3.728866577E-3,1.947611090E-1
2.330963879E1,-7.814379781E-2,-1.674890518E-1,1.598834991E-2,1.855118944E-1
2.332755505E1,-4.942455143E-2,-1.422341615E-1,-7.964134216E-3,1.507871693E-1
2.334546881E1,-7.305262238E-2,-1.226808876E-1,2.073287964E-2,1.442814545E-1
2.336338477E1,-8.735173196E-2,-1.269364953E-1,-3.214836121E-3,1.541218157E-1
2.338129865E1,-6.793359667E-2,-8.843681216E-2,-3.225326538E-3,1.115636412E-1
2.339921467E1,-9.662534297E-2,-1.070993990E-1,1.544952393E-3,1.442536829E-1
2.341712867E1,-7.707896829E-2,-1.212063581E-1,-2.655982971E-3,1.436635056E-1
2.343504426E1,-3.366573155E-2,-1.067471653E-1,-2.180671692E-2,1.140345197E-1
2.345295826E1,-3.836610168E-2,-1.591451168E-1,-3.272056580E-3,1.637370829E-1
2.347087166E1,-3.833422065E-2,-1.397025734E-1,6.289482117E-3,1.450030313E-1
2.348879134E1,2.067014575E-4,-1.488975585E-1,6.275177002E-3,1.490298745E-1
2.350670412E1,-2.366713434E-2,-1.772662848E-1,3.916358948E-2,1.830771852E-1
2.352461824E1,5.295723677E-3,-2.007896155E-1,5.646705627E-3,2.009387958E-1
2.354253371E1,-8.883967996E-3,-1.812385321E-1,1.998901367E-2,1.825538032E-1
2.356044534E1,-2.270135283E-2,-1.902203113E-1,2.534675598E-2,1.932396861E-1
2.357835488E1,-2.243398875E-2,-1.752615124E-1,2.532291412E-2,1.784968671E-1
2.359627755E1,-4.612515122E-2,-1.510107666E-1,2.052402496E-2,1.592263069E-1
2.361419394E1,-6.021259725E-2,-1.601255387E-1,3.486251831E-2,1.745884882E-1
2.363209769E1,-7.469239831E-2,-1.310865283E-1,1.511383057E-2,1.516280322E-1
2.365002060E1,-4.580130428E-2,-1.356960982E-1,1.510620117E-2,1.440117629E-1
2.366794077E1,-7.849673182E-2,-1.214739531E-1,4.858684540E-2,1.525724082E-1
2.368585386E1,-6.478013843E-2,-1.015936285E-1,2.046775818E-2,1.222156325E-1
2.370376768E1,-9.335738420E-2,-1.023150682E-1,4.918384552E-2,1.469796756E-1
2.372167142E1,-7.444895059E-2,-1.452351958E-1,3.482437134E-2,1.668791334E-1
2.373959745E1,-7.441341132E-2,-1.206800342E-1,1.324653625E-3,1.417842768E-1
2.375751353E1,-8.843298256E-2,-1.496701539E-1,-8.262634277E-3,1.740397038E-1
2.377542784E1,-1.023033559E-1,-1.395859122E-1,3.957843781E-2,1.775293110E-1
2.379334331E1,-8.853253722E-2,-1.385882646E-1,-3.700351715E-2,1.685644610E-1
2.381125719E1,-8.364721388E-2,-1.673154384E-1,-1.309680939E-2,1.875175691E-1
2.382917314E1,-8.350764215E-2,-1.713444293E-1,-1.312255859E-2,1.910618781E-1
2.384708727E1,-5.461631715E-2,-1.414645910E-1,-3.288459778E-2,1.551662637E-1
2.386499224E1,-8.322791755E-2,-1.414935142E-1,1.016712189E-2,1.644708825E-1
2.388291650E1,-8.301884681E-2,-1.360460520E-1,5.956649780E-3,1.594871119E-1
2.390083374E1,-4.939406365E-2,-1.302854866E-1,-2.336978912E-2,1.412806731E-1
2.391874713E1,-5.388011783E-2,-1.299614757E-1,1.550006866E-2,1.415390561E-1
2.393666247E1,-9.166291356E-2,-1.157555431E-1,2.983665466E-2,1.506375167E-1
2.395457648E1,-3.855209798E-2,-1.099957973E-1,-3.681182861E-3,1.166142821E-1
2.397248987E1,-7.094748318E-2,-1.296795011E-1,5.373954773E-2,1.572840022E-1
2.399040973E1,-5.211602151E-2,-1.477446854E-1,2.022075653E-2,1.579666128E-1
2.400832264E1,-2.806890011E-2,-1.283348054E-1,1.064014435E-2,1.317987029E-1
2.402623676E1,-5.126914382E-2,-1.472652555E-1,5.848789215E-2,1.665425294E-1
2.404415919E1,-3.752516210E-2,-1.420147270E-1,2.497386932E-2,1.489966933E-1
2.406206233E1,-1.855590940E-2,-1.464858949E-1,-4.346847534E-3,1.477204599E-1
2.407998677E1,-5.637449771E-2,-1.513765156E-1,4.349517822E-2,1.672864729E-1
2.409789638E1,-5.249270797E-2,-1.215552390E-1,-1.813125610E-2,1.336409479E-1
2.411581209E1,-3.896475583E-2,-9.712019563E-2,1.005172729E-3,1.046498685E-1
2.413372347E1,-8.649859577E-2,-1.116367429E-1,3.927135468E-2,1.465844765E-1
2.415164492E1,-5.785963684E-2,-9.628444910E-2,-3.810882568E-3,1.123964214E-1
2.416955611E1,-5.321658403E-2,-1.055939049E-1,-3.817558289E-3,1.183074440E-1
2.418747225E1,-6.757044047E-2,-1.149841398E-1,2.010536194E-2,1.348752847E-1
2.420538638E1,-3.876657784E-2,-9.560894966E-2,-2.297401428E-2,1.056963772E-1
2.422330185E1,-6.731341034E-2,-1.099075675E-1,1.052188873E-2,1.293115569E-1
2.424121591E1,-6.210482866E-2,-1.385941356E-1,1.530170441E-2,1.526416926E-1
2.425913199E1,-1.915140450E-2,-1.383569986E-1,-3.256034851E-2,1.434210990E-1
2.427703434E1,-5.241157115E-2,-1.722315252E-1,9.902000427E-3,1.803017489E-1
2.429496030E1,-5.651423335E-2,-1.622493267E-1,3.381633759E-2,1.751063884E-1
2.431287729E1,-2.854553610E-2,-1.660164893E-1,-9.265899658E-3,1.687073775E-1
2.433079197E1,-5.662326515E-2,-1.568080634E-1,2.422523499E-2,1.684690622E-1
2.434870567E1,-5.208038539E-2,-1.753979027E-1,9.854316711E-3,1.832318160E-1
2.436662101E1,-3.881292790E-2,-1.312415898E-1,8.716583252E-4,1.368632823E-1
2.438453459E1,-7.239325345E-2,-1.212618500E-1,2.000236511E-2,1.426370009E-1
2.440245250E1,-6.765412539E-2,-1.161324084E-1,2.477741241E-2,1.366665179E-1
2.442036559E1,-2.953013033E-2,-1.062466204E-1,-1.830101013E-2,1.117823775E-1
2.443828148E1,-7.745894790E-2,-1.059846282E-1,1.519107819E-2,1.321491539E-1
2.445619158E1,-5.350975692E-2,-9.140425920E-2,8.268356323E-4,1.059184419E-1
2.447410912E1,-3.916928172E-2,-1.007293910E-1,-2.789402008E-2,1.116186328E-1
2.449202789E1,-6.803605705E-2,-9.586878121E-2,1.996135712E-2,1.192400270E-1
2.450994097E1,-4.410697520E-2,-1.052890420E-1,-8.757591248E-3,1.144897508E-1
2.452785522E1,-3.907134384E-2,-1.049247086E-1,-3.986358643E-3,1.120341709E-1
2.454577112E1,-5.335588753E-2,-1.331445426E-1,-4.002571106E-3,1.434933466E-1
2.456368548E1,-5.799617618E-2,-1.089474708E-1,5.559921265E-3,1.235476449E-1
2.458160071E1,-3.398528695E-2,-1.324909180E-1,4.947662354E-3,1.368697280E-1
2.459951477E1,-7.192853838E-2,-1.224551946E-1,1.509952545E-2,1.428180135E-1
2.461742920E1,-3.351528198E-2,-1.506285965E-1,1.258850098E-4,1.543122292E-1
2.463534712E1,-4.303018004E-2,-1.263334155E-1,7.123947144E-4,1.334624883E-1
2.465326063E1,-6.197483838E-2,-1.307899207E-1,5.485534668E-3,1.448343020E-1
2.467117469E1,-4.735338688E-2,-1.064380854E-1,1.504039764E-2,1.174632830E-1
2.468909077E1,-6.693366915E-2,-9.657450020E-2,-8.892059326E-3,1.178381045E-1
2.470700209E1,-3.798212856E-2,-1.153746694E-1,6.771087646E-5,1.214658842E-1
2.472492360E1,-8.557873219E-2,-5.314254761E-2,2.937698364E-2,1.049326305E-1
2.474283486E1,-8.065523952E-2,-1.109951884E-1,2.458381653E-2,1.393899693E-1
2.476075069E1,-2.286636084E-2,-1.388653070E-1,-4.739761353E-3,1.408151600E-1
2.477865066E1,-1.810237765E-2,-1.768579632E-1,9.609222412E-3,1.780414906E-1
2.479658010E1,-1.345220953E-2,-1.811284125E-1,-9.548187256E-3,1.818780680E-1
2.481449734E1,-3.251148015E-2,-1.615781486E-1,1.436710358E-2,1.654415550E-1
2.483241055E1,-7.011795789E-2,-1.473972946E-1,2.392387390E-2,1.649692160E-1
2.485032474E1,-2.300351858E-2,-1.606496572E-1,-9.589195251E-3,1.625712979E-1
2.486822818E1,-3.735812008E-2,-1.220673323E-1,1.971435547E-2,1.291693406E-1
2.488615158E1,-7.082088292E-2,-1.315941960E-1,1.969432831E-2,1.507331962E-1
2.490407297E1,-5.642199516E-2,-8.273112774E-2,1.489639282E-2,1.012412147E-1
2.492198453E1,-7.552319020E-2,-8.226963878E-2,4.359531403E-2,1.198857670E-1
2.493989988E1,-8.943118155E-2,-9.146280587E-2,-4.278182983E-3,1.279909526E-1
2.495781388E1,-7.482679933E-2,-7.209849358E-2,-9.073257446E-3,1.043051613E-1
2.497573014E1,-6.487385184E-2,-1.055003405E-1,1.006221771E-2,1.242585479E-1
2.499364433E1,-6.938470900E-2,-7.660387456E-2,-1.163482666E-4,1.033557206E-1
2.501155974E1,-5.436202139E-2,-8.607240021E-2,4.658699036E-3,1.019087382E-1
2.502947411E1,-6.403951347E-2,-1.053951234E-1,3.336811066E-2,1.277600177E-1
2.504737792E1,-3.526516259E-2,-1.331196874E-1,8.822441101E-3,1.379939069E-1
2.506530419E1,-3.062052280E-2,-1.185270250E-1,4.291439056E-2,1.297224614E-1
2.508321471E1,-3.928455710E-2,-1.379790604E-1,4.768753052E-2,1.511806803E-1
2.510112182E1,-3.484270722E-2,-1.227733344E-1,4.767704010E-2,1.362365811E-1
2.511904998E1,-2.954678237E-2,-1.320669800E-1,4.767036438E-2,1.434822749E-1
2.513696417E1,-4.378466308E-2,-1.321759820E-1,3.808307648E-2,1.443534123E-1
2.515487933E1,-2.971220762E-2,-1.120035797E-1,4.567146301E-3,1.159675643E-1
2.517279346E1,-6.764174998E-2,-1.026259810E-1,2.847957611E-2,1.261688732E-1
2.519070624E1,-4.375006258E-2,-1.015698612E-1,2.846622467E-2,1.141964563E-1
2.520861945E1,-6.293021888E-2,-8.679668605E-2,-2.603530884E-4,1.072098174E-1
2.522654371E1,-8.163088560E-2,-1.014529020E-1,2.844715118E-2,1.332874083E-1
2.524445356E1,-3.894633055E-2,-1.197576970E-1,4.508972168E-3,1.260121164E-1
2.526236964E1,-5.284275115E-2,-9.072044492E-2,-5.077362061E-3,1.051110607E-1
2.528027516E1,-7.104320079E-2,-1.054697633E-1,3.798484802E-2,1.327172032E-1
2.529819276E1,-5.166348070E-2,-1.099830270E-1,4.275894165E-2,1.288165694E-1
2.531611659E1,-3.277651966E-2,-1.187669486E-1,1.882171631E-2,1.246360514E-1
2.533402950E1,-4.626026750E-2,-1.379988045E-1,5.230331421E-2,1.546587180E-1
2.535194356E1,-2.185881138E-2,-1.279460192E-1,4.689979553E-2,1.380129787E-1
2.536986525E1,-5.049635470E-2,-1.132552773E-1,4.748725891E-2,1.327843343E-1
2.538777346E1,-2.622791380E-2,-1.321224272E-1,7.080650330E-2,1.521768713E-1
2.540568954E1,-3.574965149E-2,-1.174254715E-1,4.267883301E-2,1.299548450E-1
2.542360348E1,-2.171802521E-2,-1.116112471E-1,1.335048676E-2,1.144857135E-1
2.544151925E1,-5.489558727E-2,-8.791132271E-2,5.641365051E-2,1.180018056E-1
2.545943338E1,-7.941856980E-2,-5.418747663E-2,2.350711823E-2,9.897563569E-2
2.547734915E1,-6.970872730E-2,-3.975138068E-2,3.307342529E-2,8.679476014E-2
2.549526053E1,-1.120981425E-1,-5.388033390E-2,5.220985413E-2,1.348886682E-1
2.551318216E1,-6.992048025E-2,-5.311317742E-2,1.392269135E-2,8.890289370E-2
2.553109049E1,-8.394934237E-2,-3.450012207E-2,3.305816650E-2,9.659499407E-2
2.554901237E1,-9.274274111E-2,-8.220966160E-2,4.262351990E-2,1.310587995E-1
2.556692356E1,-7.813472301E-2,-8.201120794E-2,3.304481506E-2,1.179950549E-1
2.558483915E1,-6.330437958E-2,-1.152753532E-1,2.286338806E-2,1.334862766E-1
2.560275291E1,-5.842769146E-2,-1.530116498E-1,3.241729736E-2,1.669647906E-1
2.562066661E1,-5.329350382E-2,-1.432943791E-1,2.762317657E-2,1.553593142E-1
2.563858647E1,-5.798468739E-2,-1.665852368E-1,4.136276245E-2,1.811732409E-1
2.565649926E1,-1.943979412E-2,-1.803758293E-1,3.177261353E-2,1.841815528E-1
2.567441320E1,-4.314132780E-2,-1.557900757E-1,2.696418762E-2,1.638865133E-1
2.569233446E1,-5.278048664E-2,-1.505218744E-1,4.130935669E-2,1.647697709E-1
2.571024004E1,-3.360226750E-2,-1.118032634E-1,5.565261841E-2,1.293301822E-1
2.572816296E1,-7.147485763E-2,-6.364348531E-2,3.230953217E-2,1.010101696E-1
2.574607348E1,-6.699642539E-2,-4.424713552E-2,4.665565491E-2,9.286054141E-2
2.576398956E1,-4.772813618E-2,-2.913030982E-2,4.186439514E-2,6.985110961E-2
2.578189191E1,-5.258788168E-2,-5.343128741E-2,3.707313538E-2,8.363495167E-2
2.579982062E1,-4.284824431E-2,-1.930558681E-2,4.664134979E-2,6.621248548E-2
2.581773224E1,-5.163262039E-2,-5.810938776E-2,6.099414825E-2,9.880746204E-2
2.583564942E1,-5.118023604E-2,-7.234817743E-2,5.081653595E-2,1.021567211E-1
2.585356086E1,-1.813165843E-2,-1.058022231E-1,1.731491089E-2,1.087321185E-1
2.587148225E1,-4.607395083E-2,-1.293551773E-1,3.165912628E-2,1.409179588E-1
2.588939363E1,-3.619363904E-2,-1.384204775E-1,2.206897736E-2,1.447661834E-1
2.590730971E1,-2.666243166E-2,-1.619935036E-1,3.581809998E-2,1.680348677E-1
2.592522420E1,-3.132095933E-2,-1.858326495E-1,3.998470306E-2,1.926487804E-1
2.594313948E1,-3.611262143E-2,-1.751141399E-1,3.099632263E-2,1.814658520E-1
2.596105379E1,-2.667511255E-2,-1.553158164E-1,4.055118561E-2,1.627235788E-1
2.597895534E1,-3.142917901E-2,-1.355165690E-1,3.574562073E-2,1.436324586E-1
2.599688711E1,-5.992129445E-2,-8.268049359E-2,3.633689880E-2,1.083835586E-1
2.601478133E1,-5.010893941E-2,-8.237874508E-2,5.546855927E-2,1.112381433E-1
2.603271383E1,-5.962041020E-2,-6.781336665E-2,4.110431671E-2,9.921094124E-2
2.605063034E1,-4.096028954E-2,-4.835404456E-2,2.195167542E-2,6.706515487E-2
2.606854428E1,-4.958258569E-2,-4.347658157E-2,4.587364197E-2,8.033079719E-2
2.608646005E1,-6.838214397E-2,-3.855578601E-2,6.500816345E-2,1.019251076E-1
2.610437381E1,-6.820104271E-2,-4.818321764E-2,2.672290802E-2,8.767621401E-2
2.612228910E1,-3.439443558E-2,-7.183595002E-2,4.047107697E-2,8.933806011E-2
2.614020560E1,-4.862418771E-2,-7.638724148E-2,2.670383453E-2,9.440559872E-2
2.615812016E1,-4.877153039E-2,-7.116650045E-2,2.669334412E-2,9.030984212E-2
2.617603428E1,-4.869872332E-2,-8.520855010E-2,7.872772217E-2,1.258177925E-1
2.619394206E1,-4.384926707E-2,-9.449803829E-2,3.086280823E-2,1.086515089E-1
2.621186192E1,-4.860619456E-2,-1.084852666E-1,1.171016693E-2,1.194518448E-1
2.622978319E1,-3.421454132E-2,-1.032866538E-1,5.955505371E-2,1.240385912E-1
2.624769475E1,-5.332098901E-2,-1.027717590E-1,1.646900177E-2,1.169461002E-1
2.626561101E1,-5.306714773E-2,-1.024172008E-1,2.124214172E-2,1.172886771E-1
2.628352501E1,-3.361357749E-2,-1.117160022E-1,4.516029358E-2,1.250991201E-1
2.630144073E1,-6.719269603E-2,-1.116073728E-1,1.165771484E-2,1.307936022E-1
2.631935491E1,-4.298118502E-2,-1.066185683E-1,1.165008545E-2,1.155449084E-1
2.633727111E1,-3.792964667E-2,-1.111856997E-1,4.514026642E-2,1.258513471E-1
2.635518524E1,-7.118203491E-2,-1.162312776E-1,2.120018005E-2,1.379349108E-1
2.637310095E1,-2.782284468E-2,-1.199106127E-1,2.596855164E-2,1.258055301E-1
2.639101526E1,-3.697476536E-2,-1.242817938E-1,5.945301056E-2,1.426455678E-1
2.640893122E1,-4.630908370E-2,-1.239781082E-1,6.799697876E-3,1.325192002E-1
2.642684540E1,-3.668824583E-2,-9.020891786E-2,4.986286163E-2,1.094074093E-1
2.644476130E1,-4.634507746E-2,-1.041510850E-1,6.420898438E-2,1.308361891E-1
2.646267579E1,-6.085632741E-2,-8.459341526E-2,4.027080536E-2,1.117196324E-1
2.648059187E1,-3.194478154E-2,-8.433988690E-2,4.026222229E-2,9.876604748E-2
2.649850624E1,-5.126427114E-2,-6.944720447E-2,6.417655945E-2,1.075619379E-1
2.651642134E1,-6.549220532E-2,-4.043860734E-2,1.631164551E-2,7.868023704E-2
2.653433601E1,-6.064516306E-2,-2.582320571E-2,4.980373383E-2,8.261407664E-2
2.655225215E1,-6.546574831E-2,-5.876252055E-2,3.064537048E-2,9.315544405E-2
2.657016646E1,-5.628285557E-2,-4.903656244E-2,-2.619075775E-2,7.910941840E-2
2.658808217E1,-4.582639039E-2,-5.842313170E-2,3.063106537E-2,8.032174388E-2
2.660598452E1,-5.975374579E-2,-7.266488671E-2,2.583885193E-2,9.756199140E-2
2.662390963E1,-4.028899223E-2,-9.164221585E-2,-2.883911133E-3,1.001489669E-1
2.664182974E1,-6.554909050E-3,-1.246182472E-1,4.914283752E-2,1.341182047E-1
2.665974258E1,-3.490282595E-2,-1.339120567E-1,1.563358307E-2,1.392661305E-1
2.667765665E1,-2.541249990E-2,-1.334765255E-1,3.955078125E-2,1.415133998E-1
2.669557291E1,-1.547085494E-2,-1.336890012E-1,7.303524017E-2,1.531216598E-1
2.671348728E1,-2.989948541E-2,-1.474108100E-1,4.909133911E-2,1.582210027E-1
2.673140299E1,-1.554551721E-2,-9.861259162E-2,3.951072693E-2,1.073648167E-1
2.674931699E1,-3.453068435E-2,-1.226225793E-1,9.213638306E-2,1.572188863E-1
2.676723454E1,-4.874550551E-2,-5.946643651E-2,2.572536469E-2,8.108129110E-2
2.678514701E1,-2.961810678E-2,-5.939139426E-2,1.555442810E-2,6.816531519E-2
2.680306340E1,-5.318173766E-2,-5.421841145E-2,5.382633209E-2,9.308709571E-2
2.682097770E1,-6.322714686E-2,-2.562703192E-2,-7.787704468E-3,6.866633241E-2
2.683889476E1,-5.361548811E-2,-2.547968924E-2,-3.006935120E-3,5.943800794E-2
2.685680504E1,-4.354385287E-2,-4.935432971E-2,2.570724487E-2,7.065960248E-2
2.687472655E1,-6.810482591E-2,-3.970374167E-2,-2.215099335E-2,8.188602397E-2
2.689263811E1,-3.842146695E-2,-4.439565539E-2,2.091312408E-2,6.232609485E-2
2.691055413E1,-4.271942377E-2,-1.068367213E-1,5.858612061E-2,1.291176507E-1
2.692846496E1,-3.306003660E-2,-9.134167433E-2,-3.643035889E-3,9.720874035E-2
2.694638208E1,-2.316045016E-2,-1.107015312E-1,5.855751038E-2,1.273586176E-1
2.696430084E1,-2.786731720E-2,-1.246418208E-1,7.708930969E-2,1.491808719E-1
2.698221478E1,-1.824156195E-2,-1.093142182E-1,2.025032043E-2,1.126606779E-1
2.700012915E1,-1.351603121E-2,-1.184346825E-1,6.330966949E-2,1.349724837E-1
2.701803296E1,-1.834882051E-2,-1.279137880E-1,5.372047424E-2,1.399446523E-1
2.703595887E1,-5.164355040E-2,-8.394233882E-2,2.021121979E-2,1.006074846E-1
2.705387232E1,-2.291250974E-2,-6.921182573E-2,4.891395569E-2,8.779427649E-2
2.707179267E1,-6.590877473E-2,-5.001515150E-2,3.036785126E-2,8.813449016E-2
2.708970551E1,-9.941142052E-2,-3.076244891E-2,-7.321357727E-3,1.043195143E-1
2.710761964E1,-3.720969707E-2,-9.269751608E-2,1.540279388E-2,1.010674879E-1
2.712553608E1,-2.812039107E-2,-4.458235204E-2,-7.935523987E-3,5.330398717E-2
2.714345027E1,-6.070782989E-2,-2.029971778E-2,5.810737610E-3,6.427506378E-2
2.716136586E1,-5.084981024E-2,-2.015607059E-2,6.323242188E-2,8.360807114E-2
2.717926070E1,-7.556363940E-3,-6.774376333E-2,2.912616730E-2,7.412590456E-2
2.719719924E1,-7.491119206E-3,-8.673053980E-2,4.072189331E-4,8.705440384E-2
2.721511086E1,-1.685782522E-2,-9.167623520E-2,6.260681152E-2,1.122868257E-1
2.723302627E1,-4.051139206E-2,-8.662979305E-2,5.781078339E-2,1.117496336E-1
2.725094045E1,-2.602762729E-2,-9.124985337E-2,3.866386414E-2,1.024639815E-1
2.726885708E1,-2.605738491E-2,-9.097900987E-2,4.344177246E-2,1.041314320E-1
2.728677139E1,-4.051467776E-2,-1.049749553E-1,1.053333282E-2,1.130138552E-1
2.730468692E1,-3.557928652E-2,-8.525548875E-2,2.487277985E-2,9.567151702E-2
2.732260135E1,-3.526635468E-2,-6.032365561E-2,4.878711700E-2,8.522230919E-2
2.734051316E1,-5.908562243E-2,-7.478374243E-2,5.702018738E-3,9.547896065E-2
2.735843070E1,-3.972885013E-2,-4.987995327E-2,2.483367920E-2,6.843320022E-2
2.737634861E1,-3.496303409E-2,-6.446889043E-2,4.336929321E-2,8.520297636E-2
2.739426176E1,-4.463621229E-2,-4.452392459E-2,1.524925232E-2,6.486378808E-2
2.741217826E1,-2.581218630E-2,-3.493729234E-2,-3.896713257E-3,4.361270150E-2
2.743009544E1,-6.317647547E-2,-4.033970833E-2,6.309986115E-2,9.798036332E-2
2.744800828E1,-3.883457929E-2,-5.424238741E-2,5.671501160E-3,6.695167710E-2
2.746592265E1,-3.847134858E-2,-5.926722288E-2,1.046085358E-2,7.142883051E-2
2.748383885E1,-3.843366355E-2,-1.076671928E-1,5.771636963E-2,1.280646330E-1
2.750175322E1,-1.436786354E-2,-9.747391939E-2,5.071640015E-3,9.865759979E-2
2.751966894E1,-9.132206440E-3,-1.362841427E-1,2.420997620E-2,1.387187359E-1
2.753758324E1,-1.371893287E-2,-1.504231989E-1,6.248760223E-2,1.634626818E-1
2.755549932E1,-8.587017655E-3,-1.303595304E-1,2.622604370E-4,1.306423087E-1
2.757341943E1,-2.277512103E-2,-1.256992519E-1,2.896213531E-2,1.309878366E-1
2.759132959E1,-1.332262158E-2,-1.154157370E-1,4.808712006E-2,1.257404299E-1
2.760924371E1,-2.326367050E-2,-5.227871239E-2,-2.310943604E-2,6.171149138E-2
2.762716022E1,-4.174641520E-2,-4.316027462E-2,5.345726013E-2,8.039434774E-2
2.764507428E1,-4.152543098E-2,-3.834792972E-2,6.781101227E-2,8.827943428E-2
2.766298682E1,-4.608155787E-2,-9.143769741E-3,5.597114563E-3,4.731222033E-2
2.768090449E1,-2.193530649E-2,-3.300562501E-2,4.866504669E-2,6.275998504E-2
2.769882093E1,-5.035803467E-2,-4.329447448E-2,5.823707581E-2,8.832836563E-2
2.771673494E1,-3.580178320E-2,-5.231286585E-2,2.098083496E-4,6.339122679E-2
2.773465114E1,-2.626936138E-2,-8.153699338E-2,4.327869415E-2,9.597606996E-2
2.775255568E1,-3.564024717E-2,-1.005416214E-1,1.934623718E-2,1.084118156E-1
2.777048055E1,-2.122860402E-2,-1.100594997E-1,-3.329849243E-2,1.169296229E-1
2.778839705E1,-3.071428835E-2,-1.241626441E-1,4.805088043E-2,1.366331469E-1
2.780631154E1,-4.033155739E-2,-1.284180135E-1,1.802444458E-4,1.346025750E-1
2.782422591E1,-3.074000031E-2,-9.943044186E-2,-4.611968994E-3,1.041759600E-1
2.784214217E1,-2.583903074E-2,-9.422291815E-2,2.887535095E-2,1.018793390E-1
2.786005667E1,-6.884054840E-2,-6.532539427E-2,2.887058258E-2,9.919646556E-2
2.787797226E1,-5.434574932E-2,-3.634478152E-2,1.988983154E-2,6.833746419E-2
2.789588675E1,-5.887780339E-2,-3.135511279E-2,6.773853302E-2,9.506969909E-2
2.791380276E1,-5.374552310E-2,-1.634675264E-2,1.030635834E-2,5.711408405E-2
2.793171720E1,-4.396509379E-2,-1.238328218E-2,1.449680328E-2,4.792110657E-2
2.794963285E1,-3.887882829E-2,-2.198886871E-2,4.799461365E-2,6.556337831E-2
2.796754716E1,-4.823531210E-2,-4.138460755E-2,-9.428024292E-3,6.425121569E-2
2.798545756E1,-2.399323136E-2,-5.112886429E-2,1.390266418E-2,5.816459392E-2
2.800337803E1,-2.405884117E-2,-7.993629575E-2,3.843307495E-2,9.190070983E-2
2.802129356E1,-3.350707889E-2,-1.038428396E-1,4.931449890E-3,1.092262737E-1
2.803920811E1,5.175083876E-3,-1.084864885E-1,2.885341644E-2,1.123771298E-1
2.805712431E1,-1.855942607E-2,-1.272761822E-1,3.841304779E-2,1.342357668E-1
2.807503478E1,-8.924700320E-3,-1.221013963E-1,-2.440834045E-2,1.248365665E-1
2.809295098E1,-8.802026510E-3,-7.414412498E-2,4.737281799E-2,8.842517077E-2
2.811087212E1,-3.758587688E-2,-8.809363842E-2,5.753135681E-2,1.117275449E-1
2.812878503E1,-2.831929177E-2,-3.942044079E-2,-4.684448242E-3,4.876369032E-2
2.814669940E1,-2.352759242E-2,-2.574424446E-2,6.231784821E-2,7.141307956E-2
2.816460723E1,-5.216520280E-2,-2.566573024E-2,3.360080719E-2,6.714873294E-2
2.818252679E1,-3.354143351E-2,3.483146429E-3,-8.869171143E-3,3.486864305E-2
2.820044873E1,-4.708171636E-2,2.676993608E-3,6.710720062E-2,8.201969694E-2
2.821834851E1,-6.622350961E-2,-4.520893097E-2,9.679794312E-3,8.076570486E-2
2.823627570E1,-2.376292646E-2,-3.992414474E-2,-4.774475098E-2,6.661963114E-2
2.825419031E1,-3.250345588E-2,-6.464222074E-2,2.344417572E-2,7.605735152E-2
2.827210676E1,-4.664801061E-2,-9.314925969E-2,-4.911422729E-4,1.041780336E-1
2.829002088E1,-2.745737135E-2,-7.862281799E-2,-9.469032288E-3,8.381597296E-2
2.830793397E1,-3.217718750E-2,-1.307938695E-1,6.170463562E-2,1.481548843E-1
2.832585414E1,-8.567698300E-3,-1.206193715E-1,1.383590698E-2,1.217122449E-1
2.834376716E1,-1.317146420E-2,-1.060225219E-1,9.042739868E-3,1.072195586E-1
2.836168178E1,-3.664498031E-2,-8.647361398E-2,6.167030334E-2,1.123555375E-1
2.837959773E1,-2.690822631E-2,-7.668600976E-2,3.773593903E-2,8.960355925E-2
2.839751155E1,-4.111558944E-2,-2.868932486E-2,9.614944458E-3,5.104915487E-2
2.841542513E1,-2.669963241E-2,-7.633085549E-2,3.772544861E-2,8.923272574E-2
2.843334542E1,-3.624189645E-2,-3.809554875E-2,3.910064697E-5,5.258086555E-2
2.845125820E1,-5.031616241E-2,-1.444140077E-2,9.613990784E-3,5.322310658E-2
2.846917245E1,-4.059337825E-2,-3.825725615E-2,2.875328064E-2,6.275500899E-2
2.848708853E1,-3.550974280E-2,-4.796047509E-2,-4.745483398E-3,5.986375044E-2
2.850500418E1,-3.043963015E-2,-5.758371949E-2,4.824638367E-3,6.531257895E-2
2.852291818E1,-3.053829819E-2,-7.178977132E-2,2.396392822E-2,8.161267535E-2
2.854083334E1,-4.940331727E-2,-6.702944636E-2,4.819869995E-3,8.340782688E-2
2.855874973E1,-3.491620719E-2,-6.705348194E-2,1.917648315E-2,7.799390022E-2
2.857665177E1,-3.001060337E-2,-9.094233811E-2,2.874565125E-2,9.998728740E-2
2.859458103E1,-1.563117653E-2,-8.108781278E-2,2.873897552E-2,8.743852569E-2
