"Time (s)","Linear Acceleration x (m/s^2)","Linear Acceleration y (m/s^2)","Linear Acceleration z (m/s^2)","Absolute acceleration (m/s^2)"
4.999833800E-2,-3.532676935E0,1.277268648E0,-4.689466476E0,6.008520397E0
6.791238000E-2,-3.426547289E0,1.249182701E0,-3.947845459E0,5.374678364E0
8.583199600E-2,-3.406836033E0,1.161683559E0,-4.217327595E0,5.544537175E0
1.037503930E-1,-3.248516560E0,1.052145243E0,-3.595034122E0,4.958239586E0
1.216662860E-1,-3.057285070E0,1.029770374E0,-3.298747540E0,4.614017160E0
1.395871240E-1,-2.670226812E0,1.013638496E0,-2.273135662E0,3.650304093E0
1.574962420E-1,-1.231833935E0,1.406459570E0,-5.651350021E-1,1.953182259E0
1.754259910E-1,-2.001368999E0,1.249710083E0,1.394004822E0,2.740529622E0
1.933451190E-1,-3.025132656E0,1.497613430E0,1.958801270E0,3.902713926E0
2.112538720E-1,-3.039801121E0,1.489253283E0,1.514187813E0,3.708238251E0
2.291828870E-1,-2.378646851E0,9.431980252E-1,1.873264313E-1,2.565672338E0
2.471017720E-1,-2.167906284E0,7.790330052E-1,-5.288610458E-1,2.363557507E0
2.650209000E-1,-2.836271763E0,1.153036475E0,9.438800812E-2,3.063142132E0
2.829405780E-1,-3.274921179E0,1.358247399E0,4.884395599E-1,3.578898983E0
3.008577530E-1,-3.414530754E0,1.220739961E0,5.790157318E-1,3.672122757E0
3.187772480E-1,-3.259943485E0,1.227233529E0,6.703748703E-1,3.547215264E0
3.366964980E-1,-2.579315424E0,1.212625623E0,7.637224197E-1,2.950694985E0
3.546148950E-1,-2.008329868E0,1.222167373E0,1.261285782E0,2.667943734E0
3.725346330E-1,-1.910544515E0,1.519433618E0,2.244806290E0,3.316325397E0
3.904531510E-1,-2.282849312E0,1.639742732E0,2.482285500E0,3.749919800E0
4.083720360E-1,-2.660490751E0,1.489496112E0,1.560924530E0,3.425389772E0
4.262906760E-1,-2.737087965E0,1.618650794E0,1.101089478E0,3.365126886E0
4.441982680E-1,-2.705516815E0,1.719702482E0,4.252443314E-1,3.233887847E0
4.621250270E-1,-2.716733217E0,1.756048679E0,6.179809570E-2,3.235454426E0
4.800514180E-1,-2.959574699E0,1.884141684E0,1.928424835E-2,3.508481747E0
4.979663960E-1,-2.981220961E0,1.835837245E0,-2.889204025E-1,3.513040251E0
5.158859510E-1,-2.920991659E0,1.826369882E0,-5.235586166E-1,3.484527635E0
5.337912860E-1,-2.941485882E0,1.855809212E0,-7.879314423E-1,3.566118756E0
5.517201800E-1,-2.999057531E0,1.804894209E0,-6.279697418E-1,3.556168609E0
5.696449230E-1,-2.973894596E0,1.838031650E0,-5.230808258E-1,3.534971423E0
5.875614890E-1,-2.921081066E0,1.787153244E0,-4.930477142E-1,3.459729377E0
6.054802510E-1,-3.016749382E0,1.758184195E0,-7.939977646E-1,3.580840816E0
6.233991350E-1,-3.069145679E0,1.718047261E0,-6.332302094E-1,3.573838565E0
6.413172870E-1,-2.955462217E0,1.751928926E0,-5.001993179E-1,3.471917516E0
6.592369650E-1,-3.020718575E0,1.762898684E0,-3.552923203E-1,3.515506380E0
6.771520650E-1,-2.920890093E0,1.755988121E0,1.907262802E-1,3.413424927E0
6.950748550E-1,-2.871778488E0,1.726099491E0,4.288873672E-1,3.377939536E0
7.129930070E-1,-2.831849575E0,1.728306651E0,2.822656631E-1,3.329578021E0
7.309127460E-1,-2.927593946E0,1.823205829E0,-6.542205811E-4,3.448896380E0
7.488312640E-1,-2.915904284E0,1.782882333E0,3.576087952E-1,3.436430016E0
7.667499650E-1,-2.882781506E0,1.803976417E0,5.387649536E-1,3.443113097E0
7.846643330E-1,-2.917794466E0,1.840744019E0,4.375410080E-1,3.477542986E0
8.025926780E-1,-2.946855545E0,1.827298522E0,2.498931885E-1,3.476409656E0
8.205070450E-1,-2.961231232E0,1.825781941E0,3.346242905E-1,3.494902505E0
8.384261740E-1,-2.944286585E0,1.793136716E0,4.993648529E-1,3.483321408E0
8.563476210E-1,-2.954726934E0,1.854218364E0,4.048891068E-1,3.511761977E0
8.742638200E-1,-2.962678194E0,1.875464320E0,-2.468204498E-2,3.506485092E0
8.921855730E-1,-3.009504080E0,1.850842595E0,-9.934616089E-2,3.534487626E0
9.101017720E-1,-3.007911921E0,1.803173661E0,1.329135895E-2,3.507013834E0
9.280204730E-1,-2.949512005E0,1.778337598E0,2.695560455E-1,3.454673087E0
9.459277000E-1,-2.962267876E0,1.703927398E0,3.041238785E-1,3.430873195E0
9.638466450E-1,-2.988934994E0,1.699135303E0,2.040462494E-1,3.444187574E0
9.817655290E-1,-3.034050941E0,1.661494017E0,1.081142426E-1,3.460883727E0
9.996959490E-1,-3.069642305E0,1.666381001E0,1.147937775E-1,3.494668387E0
1.017610134E0,-3.048599720E0,1.717246771E0,1.364364624E-1,3.501644133E0
1.035533962E0,-3.009812593E0,1.743572593E0,2.444257736E-1,3.486941524E0
1.053452785E0,-2.970395565E0,1.753180265E0,2.666196823E-1,3.459476393E0
1.071371731E0,-2.905732155E0,1.798714161E0,2.075834274E-1,3.423703093E0
1.089291286E0,-3.052219629E0,1.715113997E0,1.147346497E-1,3.502973698E0
1.107209438E0,-2.930708647E0,1.789979219E0,1.940393448E-1,3.439582830E0
1.125128322E0,-2.972697973E0,1.785119176E0,2.112827301E-1,3.473934960E0
1.143047024E0,-2.996029377E0,1.842363715E0,3.915443420E-1,3.538898566E0
1.160966579E0,-2.993872881E0,1.844818592E0,3.182392120E-1,3.530992305E0
1.178885158E0,-3.039918661E0,1.871615887E0,3.353567123E-1,3.585598363E0
1.196804164E0,-3.000346422E0,1.818055868E0,3.328542709E-1,3.523946333E0
1.214708156E0,-3.077899456E0,1.786230922E0,4.418926239E-1,3.585994291E0
1.232646755E0,-3.041701317E0,1.747435808E0,4.261941910E-1,3.533711971E0
1.250559291E0,-3.015136242E0,1.781297445E0,3.538055420E-1,3.519836006E0
1.268479702E0,-2.962092876E0,1.763541698E0,3.297328949E-1,3.463061841E0
1.286398159E0,-2.879156113E0,1.800211191E0,2.478284836E-1,3.404661395E0
1.304317836E0,-2.904953003E0,1.814737916E0,2.469806671E-1,3.434097422E0
1.322236538E0,-2.906744480E0,1.821026564E0,2.899036407E-1,3.442287806E0
1.340155239E0,-2.893460989E0,1.797803760E0,3.121166229E-1,3.420764774E0
1.358073940E0,-2.895415545E0,1.786855936E0,2.201013565E-1,3.409505817E0
1.375993312E0,-2.955130339E0,1.734019160E0,3.630895615E-1,3.445497322E0
1.393912319E0,-2.916278839E0,1.773611069E0,4.440679550E-1,3.442030627E0
1.411831020E0,-2.964144468E0,1.773125768E0,5.204925537E-1,3.492998700E0
1.429749721E0,-2.952424526E0,1.841651917E0,4.336824417E-1,3.506646949E0
1.447668910E0,-2.964999199E0,1.824476480E0,2.947673798E-1,3.493826339E0
1.465587551E0,-2.945767164E0,1.799845934E0,3.755311966E-1,3.472465011E0
1.483510585E0,-2.970183372E0,1.818617344E0,5.047168732E-1,3.519104635E0
1.501425197E0,-3.008160830E0,1.789207101E0,6.147165298E-1,3.553613659E0
1.519334621E0,-2.938076019E0,1.802011967E0,5.658903122E-1,3.492816867E0
1.537263454E0,-3.026789188E0,1.836138487E0,4.842872620E-1,3.573148680E0
1.555182216E0,-3.020082474E0,1.802607894E0,5.263824463E-1,3.556314363E0
1.573102565E0,-2.999219656E0,1.820986986E0,4.210777283E-1,3.533923967E0
1.591020229E0,-3.002896786E0,1.749698400E0,4.968681335E-1,3.510799274E0
1.608939113E0,-2.896565437E0,1.846640468E0,5.873069763E-1,3.484982329E0
1.626858120E0,-2.942251682E0,1.802428246E0,4.910097122E-1,3.485209187E0
1.644776760E0,-2.931192636E0,1.825672150E0,5.769205093E-1,3.501115014E0
1.662696071E0,-2.930984259E0,1.805222273E0,5.384473801E-1,3.484167298E0
1.680614467E0,-2.911906719E0,1.820100307E0,5.671634674E-1,3.480465525E0
1.698533840E0,-2.896099091E0,1.821525812E0,6.284885406E-1,3.478554883E0
1.716452358E0,-2.926484346E0,1.826515913E0,6.706476212E-1,3.514290717E0
1.734371852E0,-2.941266775E0,1.825412035E0,5.311069489E-1,3.502178455E0
1.752290248E0,-2.985908270E0,1.803903461E0,4.536819458E-1,3.517889026E0
1.770209377E0,-2.946255445E0,1.773822665E0,5.061511993E-1,3.476069193E0
1.788127834E0,-2.954929113E0,1.801238060E0,5.681514740E-1,3.506973155E0
1.806047450E0,-3.000431061E0,1.710351944E0,6.005344391E-1,3.505500240E0
1.823965786E0,-2.915985823E0,1.807175040E0,7.814979553E-1,3.518464722E0
1.841884609E0,-2.987404346E0,1.687921286E0,5.166311264E-1,3.469952552E0
1.859803615E0,-2.831036568E0,1.804665565E0,6.351842880E-1,3.416876487E0
1.877723293E0,-2.984062195E0,1.795460939E0,7.834739685E-1,3.569613232E0
1.895641445E0,-2.916951895E0,1.828825831E0,9.892492294E-1,3.582153865E0
1.913560268E0,-2.870455265E0,1.923129201E0,8.163251877E-1,3.550257197E0
1.931478908E0,-2.889141321E0,1.854015112E0,5.804395676E-1,3.481582930E0
1.949398403E0,-2.919942617E0,1.820417404E0,7.186183929E-1,3.515166683E0
1.967317165E0,-2.960385323E0,1.801074743E0,8.081970215E-1,3.558220611E0
1.985236049E0,-2.975377321E0,1.804905057E0,7.592086792E-1,3.561874547E0
2.003154445E0,-2.948109388E0,1.798634648E0,7.439632416E-1,3.532692581E0
2.021073879E0,-2.921461105E0,1.788091898E0,7.432346344E-1,3.504940135E0
2.038992885E0,-2.899410725E0,1.787804246E0,7.328615189E-1,3.484237733E0
2.056911892E0,-2.891797066E0,1.760458350E0,7.314319611E-1,3.463624776E0
2.074830227E0,-2.885860205E0,1.764318228E0,8.027763367E-1,3.476414500E0
2.092750026E0,-2.899162292E0,1.757409453E0,9.413318634E-1,3.518484853E0
2.110668605E0,-2.882829905E0,1.801675558E0,8.694105148E-1,3.508933986E0
2.128584621E0,-2.870243073E0,1.838600516E0,8.064193726E-1,3.502721707E0
2.146497280E0,-2.862658262E0,1.855013371E0,6.721611023E-1,3.476735175E0
2.164425258E0,-2.850292206E0,1.858789921E0,6.905612946E-1,3.472195347E0
2.182344204E0,-2.861912012E0,1.802347183E0,7.180547714E-1,3.457542247E0
2.200263149E0,-2.869701147E0,1.784166694E0,7.605838776E-1,3.463657503E0
2.218181606E0,-2.901725054E0,1.731718659E0,8.267173767E-1,3.478838804E0
2.236100856E0,-2.889967680E0,1.735778809E0,8.357248306E-1,3.473222892E0
2.254019741E0,-2.873500824E0,1.733102560E0,7.010631561E-1,3.428139586E0
2.271938564E0,-2.877050877E0,1.706494570E0,7.773771286E-1,3.434219076E0
2.289857631E0,-2.884478331E0,1.723405957E0,7.242155075E-1,3.437270928E0
2.307776637E0,-2.891036510E0,1.726566076E0,7.282228470E-1,3.445204063E0
2.325692287E0,-2.905848265E0,1.731204987E0,6.702079773E-1,3.448217449E0
2.343614467E0,-2.931560993E0,1.745738268E0,7.220201492E-1,3.487544273E0
2.361535792E0,-2.923734426E0,1.749012589E0,7.260208130E-1,3.483442874E0
2.379452114E0,-2.911204338E0,1.755771279E0,7.013731003E-1,3.471277533E0
2.397371913E0,-2.874910355E0,1.756987929E0,6.911535263E-1,3.439448986E0
2.415288173E0,-2.890838623E0,1.737750173E0,6.712951660E-1,3.439093021E0
2.433210171E0,-2.864734650E0,1.718091726E0,6.085233688E-1,3.395415215E0
2.451127895E0,-2.844452858E0,1.726712227E0,5.796957016E-1,3.377646264E0
2.469046657E0,-2.815251112E0,1.744720459E0,6.276254654E-1,3.370994220E0
2.486965236E0,-2.794129610E0,1.742364168E0,6.081962585E-1,3.348566240E0
2.504883938E0,-2.810436249E0,1.703552008E0,5.262622833E-1,3.328301871E0
2.522803432E0,-2.815972805E0,1.659744143E0,6.300411224E-1,3.328874476E0
2.540722194E0,-2.845802546E0,1.638111353E0,5.762987137E-1,3.333784807E0
2.558641262E0,-2.829272747E0,1.627632499E0,7.426309586E-1,3.347457628E0
2.576559780E0,-2.855470419E0,1.681077838E0,6.514291763E-1,3.376994815E0
2.594479457E0,-2.858883619E0,1.714090705E0,5.845136642E-1,3.384224980E0
2.612398159E0,-2.807956219E0,1.747044444E0,5.789384842E-1,3.357372810E0
2.630316555E0,-2.860827923E0,1.750722170E0,4.922056198E-1,3.389930809E0
2.648217922E0,-2.829735518E0,1.737512946E0,4.915237427E-1,3.356776717E0
2.666155055E0,-2.813729286E0,1.729843378E0,6.724290848E-1,3.370695994E0
2.684061916E0,-2.863358021E0,1.723782063E0,7.051429749E-1,3.415767903E0
2.701992397E0,-2.873832703E0,1.720586777E0,6.611442566E-1,3.414153627E0
2.719900844E0,-2.851441145E0,1.703003049E0,5.788736343E-1,3.371354427E0
2.737830593E0,-2.848202705E0,1.700477123E0,5.015506744E-1,3.354911948E0
2.755749172E0,-2.860691547E0,1.681945562E0,5.442543030E-1,3.362842510E0
2.773667934E0,-2.834340334E0,1.691664577E0,5.103025436E-1,3.340003421E0
2.791586696E0,-2.791924715E0,1.704515934E0,4.567975998E-1,3.302859705E0
2.809506008E0,-2.727076769E0,1.700378537E0,4.082632065E-1,3.239585424E0
2.827424709E0,-2.729467154E0,1.645430088E0,5.179214478E-1,3.228881191E0
2.845331752E0,-2.765271902E0,1.624943495E0,6.412782669E-1,3.270842073E0
2.863262417E0,-2.785293341E0,1.630603313E0,5.788021088E-1,3.278984300E0
2.881181606E0,-2.800977468E0,1.663592696E0,3.393125534E-1,3.275385236E0
2.899100490E0,-2.789573193E0,1.678146601E0,2.058572769E-1,3.261942953E0
2.917006862E0,-2.797689915E0,1.696405172E0,1.774387360E-1,3.276636060E0
2.934937893E0,-2.685405493E0,1.676021218E0,5.777835846E-2,3.166036659E0
2.952857204E0,-2.661387205E0,1.654498339E0,-3.879833221E-2,3.133983395E0
2.970775844E0,-2.693436146E0,1.605642319E0,2.636241913E-2,3.135822142E0
2.988692837E0,-2.702183962E0,1.547425747E0,2.110700607E-1,3.121037516E0
3.006615566E0,-2.777275562E0,1.486402392E0,2.812843323E-1,3.162557904E0
3.024532985E0,-2.791454792E0,1.486824036E0,2.801227570E-1,3.175111703E0
3.042451381E0,-2.727247953E0,1.529075384E0,2.842988968E-1,3.139550731E0
3.060360561E0,-2.700690746E0,1.589141130E0,2.597875595E-1,3.144294772E0
3.078289211E0,-2.721784592E0,1.612335443E0,2.548961639E-1,3.173753141E0
3.096208522E0,-2.733694315E0,1.618857503E0,2.733192444E-1,3.188806616E0
3.114127163E0,-2.735840082E0,1.620610952E0,3.060503006E-1,3.194505846E0
3.132045803E0,-2.770741224E0,1.628964543E0,2.579708099E-1,3.224450551E0
3.149964748E0,-2.763569355E0,1.663111210E0,1.664953232E-1,3.229702025E0
3.167884487E0,-2.746325731E0,1.675324202E0,3.252696991E-2,3.217153121E0
3.185803066E0,-2.752806902E0,1.627357364E0,-1.531600952E-3,3.197849305E0
3.203710292E0,-2.745272636E0,1.588745117E0,4.040145874E-2,3.172107371E0
3.221636806E0,-2.761728048E0,1.515645385E0,2.304620743E-1,3.158707887E0
3.239563747E0,-2.811123371E0,1.477866530E0,4.011802673E-1,3.201163803E0
3.257478786E0,-2.807121754E0,1.495416045E0,4.143552780E-1,3.207474393E0
3.275397426E0,-2.778401136E0,1.552419424E0,2.509050369E-1,3.192565157E0
3.293315883E0,-2.778543949E0,1.578146100E0,7.804870605E-2,3.196395343E0
3.311235683E0,-2.765468121E0,1.598427534E0,2.468776703E-2,3.194275191E0
3.329154079E0,-2.723783731E0,1.587058783E0,8.614921570E-2,3.153597166E0
3.347072963E0,-2.703558922E0,1.576523304E0,1.127872467E-1,3.131673280E0
3.364991420E0,-2.686475515E0,1.558496237E0,1.875476837E-1,3.111468359E0
3.382902309E0,-2.683476448E0,1.549742222E0,1.951065063E-1,3.104965918E0
3.400826808E0,-2.700265884E0,1.525861979E0,2.220163345E-1,3.109498654E0
3.418751430E0,-2.650391340E0,1.538541079E0,2.156009674E-1,3.072159938E0
3.436667202E0,-2.657900333E0,1.568220139E0,2.044973373E-1,3.092825205E0
3.454586391E0,-2.694734812E0,1.550561547E0,9.826469421E-2,3.110545413E0
3.472505275E0,-2.652557850E0,1.535887599E0,1.877870560E-1,3.070875745E0
3.490424526E0,-2.672624588E0,1.543250322E0,3.401947021E-1,3.104879415E0
3.508342983E0,-2.686236858E0,1.591395140E0,1.959533691E-1,3.128386912E0
3.526262172E0,-2.668090582E0,1.586741805E0,8.506011963E-2,3.105429460E0
3.544181667E0,-2.694329262E0,1.562835217E0,1.757345200E-1,3.119735038E0
3.562099209E0,-2.697051525E0,1.523401022E0,1.892566681E-1,3.103329774E0
3.580018520E0,-2.676013947E0,1.511017799E0,1.317873001E-1,3.075970306E0
3.597938320E0,-2.660197496E0,1.554551601E0,6.060791016E-2,3.081712952E0
3.615856289E0,-2.595842123E0,1.579461336E0,-2.092838287E-2,3.038672809E0
3.633775600E0,-2.588402510E0,1.541026831E0,-3.566932678E-2,3.012617391E0
3.651693996E0,-2.629798412E0,1.479879737E0,1.404123306E-1,3.020860697E0
3.669613552E0,-2.676068068E0,1.426841259E0,3.595533371E-1,3.053931054E0
3.687531948E0,-2.711185455E0,1.440473557E0,3.683834076E-1,3.092118525E0
3.705446498E0,-2.708046436E0,1.497732162E0,3.890609741E-2,3.094871696E0
3.723365077E0,-2.649062634E0,1.543905497E0,-3.095521927E-1,3.081720230E0
3.741294033E0,-2.601687431E0,1.604537129E0,-5.563869476E-1,3.106908966E0
3.759207912E0,-2.580465317E0,1.578994036E0,-5.221548080E-1,3.069962387E0
3.777126430E0,-2.548319340E0,1.563224196E0,-2.874393463E-1,3.003368563E0
3.795045376E0,-2.555521965E0,1.519926786E0,-2.788858414E-1,2.986410431E0
3.812967433E0,-2.567038774E0,1.478258014E0,-8.901882172E-2,2.963588901E0
3.830883571E0,-2.635609865E0,1.407556415E0,-2.751827240E-2,2.988044792E0
3.848802150E0,-2.666785002E0,1.412397146E0,-3.860473633E-3,3.017718152E0
3.866721157E0,-2.663736582E0,1.417204142E0,2.452955246E-1,3.027231417E0
3.884640346E0,-2.666203260E0,1.434931159E0,4.268207550E-1,3.057751333E0
3.902558986E0,-2.616383076E0,1.495956898E0,1.969461441E-1,3.020287275E0
3.920477809E0,-2.595051765E0,1.549935937E0,3.410720825E-2,3.022872537E0
3.938396633E0,-2.570796013E0,1.614520788E0,-1.407241821E-2,3.035764739E0
3.956313136E0,-2.594661474E0,1.590067148E0,-1.884555817E-2,3.043178742E0
3.974237636E0,-2.574151039E0,1.658245802E0,-1.949701309E-1,3.068231749E0
3.992153225E0,-2.489589691E0,1.614936590E0,-6.267738342E-2,2.968165338E0
4.010071926E0,-2.533777475E0,1.585068703E0,-1.870737076E-1,2.994573035E0
4.027991420E0,-2.508821964E0,1.537707448E0,-5.835628510E-2,2.943150914E0
4.045907253E0,-2.546082258E0,1.444638371E0,6.545448303E-2,2.928105049E0
4.063832241E0,-2.557543039E0,1.393493176E0,6.881618500E-2,2.913346065E0
4.081747402E0,-2.596235037E0,1.339125514E0,1.296358109E-1,2.924123621E0
4.099667201E0,-2.606812954E0,1.369310617E0,2.431106567E-1,2.954587642E0
4.117573452E0,-2.598874569E0,1.384614706E0,2.510080338E-1,2.955386936E0
4.135502040E0,-2.588282824E0,1.439837456E0,1.269369125E-1,2.964532485E0
4.153426356E0,-2.546837330E0,1.484871268E0,-6.334018707E-2,2.948768395E0
4.171342555E0,-2.476142168E0,1.539422512E0,-1.387033463E-1,2.918962200E0
4.189261562E0,-2.417773962E0,1.553283453E0,-2.207002640E-1,2.882191705E0
4.207180385E0,-2.471524954E0,1.523261905E0,-1.591949463E-1,2.907594445E0
4.225098842E0,-2.529921532E0,1.483237267E0,-7.403755188E-2,2.933594605E0
4.243018337E0,-2.527346611E0,1.447199821E0,1.400480270E-1,2.915730040E0
4.260925686E0,-2.532732487E0,1.426120520E0,1.397418976E-1,2.909996801E0
4.278855922E0,-2.542511702E0,1.432562351E0,4.849433899E-3,2.918325575E0
4.296774624E0,-2.511370659E0,1.421857357E0,3.782939911E-2,2.886189875E0
4.314693813E0,-2.542747974E0,1.392709970E0,2.282800674E-1,2.908147196E0
4.332612453E0,-2.548264265E0,1.405574560E0,2.034616470E-1,2.917308220E0
4.350531215E0,-2.529030800E0,1.416761160E0,1.689739227E-1,2.903749500E0
4.368446804E0,-2.539726973E0,1.441406250E0,3.482151031E-2,2.920458459E0
4.386366909E0,-2.522131681E0,1.412112474E0,-2.307128906E-2,2.890630060E0
4.404290431E0,-2.519494772E0,1.447232962E0,-8.499431610E-2,2.906812891E0
4.422207241E0,-2.505370140E0,1.457687855E0,-2.148828506E-1,2.906528524E0
4.440106777E0,-2.414007425E0,1.480927587E0,-3.642187119E-1,2.855386775E0
4.458042689E0,-2.414088249E0,1.426320076E0,-2.646102905E-1,2.816421424E0
4.475967068E0,-2.461634159E0,1.371417403E0,-9.002590179E-2,2.819314294E0
4.493882534E0,-2.518597364E0,1.314648986E0,1.185903549E-1,2.843536234E0
4.511801601E0,-2.489233017E0,1.305480719E0,2.511444092E-1,2.821991218E0
4.529720729E0,-2.512157917E0,1.317414284E0,2.352876663E-1,2.846379820E0
4.547637111E0,-2.479275942E0,1.356255770E0,1.486301422E-1,2.829899261E0
4.565560879E0,-2.462605238E0,1.425261736E0,3.867626190E-2,2.845574007E0
4.583477199E0,-2.441567183E0,1.413829088E0,-1.401329041E-2,2.821410883E0
4.601396633E0,-2.416598320E0,1.478561878E0,-1.952953339E-1,2.839759309E0
4.619315212E0,-2.382059574E0,1.457390785E0,-2.007999420E-1,2.799735047E0
4.637222133E0,-2.345532417E0,1.495246649E0,-7.241535187E-2,2.782539999E0
4.655152492E0,-2.441940308E0,1.431792378E0,3.655624390E-2,2.830978319E0
4.673066677E0,-2.438896656E0,1.393659592E0,1.117773056E-1,2.811227156E0
4.690986965E0,-2.460220337E0,1.375337481E0,9.226703644E-2,2.820062145E0
4.708913295E0,-2.395842791E0,1.417329311E0,6.612777710E-3,2.783689779E0
4.726828029E0,-2.394092560E0,1.431772351E0,-3.178596497E-3,2.789562932E0
4.744747768E0,-2.413680315E0,1.386260033E0,-1.828765869E-2,2.783505700E0
4.762661281E0,-2.466562033E0,1.339949489E0,8.648872375E-3,2.807038955E0
4.834341945E0,-2.470857620E0,1.368562937E0,-1.115655899E-1,2.826755874E0
4.852249233E0,-2.416495562E0,1.420903444E0,-2.790794373E-1,2.817144428E0
4.870179348E0,-2.391042471E0,1.437776089E0,-2.036113739E-1,2.797452729E0
4.888098964E0,-2.407562256E0,1.401018262E0,-1.264286041E-2,2.785564221E0
4.906017421E0,-2.398035526E0,1.399637938E0,1.533555984E-1,2.780841362E0
4.923936550E0,-2.393723488E0,1.361096859E0,1.043939590E-1,2.755611528E0
4.941854885E0,-2.349385977E0,1.365770340E0,1.695575714E-1,2.722809736E0
4.959774440E0,-2.390555143E0,1.344238997E0,1.065692902E-1,2.744647407E0
4.977692959E0,-2.461995602E0,1.340641618E0,1.935100555E-2,2.803411627E0
4.995612026E0,-2.434400558E0,1.331978798E0,-7.216453552E-2,2.775910899E0
5.013530910E0,-2.406892300E0,1.329014063E0,-6.317996979E-2,2.750163746E0
5.031450038E0,-2.369803667E0,1.335809946E0,-6.381416321E-2,2.721108208E0
5.049368557E0,-2.323514223E0,1.347879648E0,-4.525184631E-2,2.686549017E0
5.067287563E0,-2.334464073E0,1.342636943E0,4.434013367E-2,2.693392381E0
5.085200893E0,-2.343791246E0,1.332684994E0,7.191371918E-2,2.697142614E0
5.103121425E0,-2.357849121E0,1.364646792E0,5.711650848E-2,2.724880849E0
5.121048427E0,-2.377804518E0,1.340779901E0,3.260135651E-2,2.729964819E0
5.138963283E0,-2.340675592E0,1.334219933E0,-2.517700195E-2,2.694353158E0
5.156881984E0,-2.346524954E0,1.337957144E0,-8.305454254E-2,2.702444585E0
5.174805690E0,-2.327928543E0,1.337070704E0,-1.127824783E-1,2.686955388E0
5.192716396E0,-2.332939863E0,1.353393912E0,-7.982158661E-2,2.698268884E0
5.210642116E0,-2.367135286E0,1.313741446E0,5.599021912E-3,2.707263821E0
5.228557522E0,-2.392492294E0,1.278380156E0,1.439762115E-2,2.712652298E0
5.246476894E0,-2.347929955E0,1.274594307E0,-8.535671234E-2,2.672948089E0
5.264395473E0,-2.275387287E0,1.292664528E0,-1.905078888E-1,2.623863972E0
5.282314357E0,-2.216293573E0,1.319866657E0,-1.769733429E-1,2.585599497E0
5.300233059E0,-2.213064432E0,1.324461699E0,-9.156799316E-2,2.580743627E0
5.318152553E0,-2.261192799E0,1.302612782E0,-1.022682190E-1,2.611561165E0
5.336068080E0,-2.291697025E0,1.267506480E0,-4.083251953E-2,2.619182168E0
5.353992947E0,-2.288882971E0,1.235549688E0,8.715438843E-2,2.602530341E0
5.371908596E0,-2.323413610E0,1.244734049E0,1.300306320E-1,2.639038011E0
5.389828029E0,-2.310869694E0,1.264041424E0,-1.911354065E-2,2.634062412E0
5.407737087E0,-2.303664446E0,1.305499554E0,-7.185459137E-2,2.648841642E0
5.425665432E0,-2.317152262E0,1.332648993E0,-6.268501282E-2,2.673775861E0
5.443584438E0,-2.321517467E0,1.324588656E0,3.762245178E-2,2.673086963E0
5.461503932E0,-2.310149670E0,1.346622944E0,5.171489716E-2,2.674482993E0
5.479422512E0,-2.295150995E0,1.349868536E0,-5.750656128E-3,2.662685904E0
5.497329311E0,-2.284603119E0,1.348432064E0,6.531906128E-2,2.653666713E0
5.515258083E0,-2.296416998E0,1.325943947E0,7.930755615E-2,2.652913128E0
5.533180751E0,-2.310594797E0,1.298671603E0,6.901454926E-2,2.651444749E0
5.551097805E0,-2.317530870E0,1.289804101E0,6.378173828E-3,2.652279140E0
5.569016872E0,-2.309691906E0,1.274248958E0,-3.446578979E-3,2.637877743E0
5.586935756E0,-2.282635212E0,1.255108237E0,-3.246593475E-2,2.605143803E0
5.604855190E0,-2.245672703E0,1.232699037E0,-5.212783813E-2,2.562286111E0
5.622773586E0,-2.232343674E0,1.213363171E0,-5.064964294E-3,2.540793993E0
5.640692653E0,-2.211063862E0,1.203101635E0,6.477451324E-2,2.518025552E0
5.658610927E0,-2.233903408E0,1.234688282E0,1.952171326E-3,2.552407374E0
5.676530300E0,-2.243721962E0,1.245746851E0,-3.706836700E-2,2.566621811E0
5.694448940E0,-2.202088118E0,1.230690241E0,-2.363777161E-2,2.522766198E0
5.712368068E0,-2.198906898E0,1.237929583E0,-4.773902893E-2,2.523874049E0
5.730286281E0,-2.185186625E0,1.229102135E0,-1.058835983E-1,2.509371232E0
5.748206020E0,-2.138198853E0,1.229657650E0,-7.320690155E-2,2.467653039E0
5.766124843E0,-2.187027454E0,1.200409889E0,2.720832825E-2,2.494957571E0
5.784043605E0,-2.204166889E0,1.167723894E0,1.461963654E-1,2.498660470E0
5.801962307E0,-2.201591969E0,1.145015717E0,1.606130600E-1,2.486737771E0
5.819881618E0,-2.190065622E0,1.178803205E0,8.255004883E-3,2.487173611E0
5.837799281E0,-2.125859261E0,1.219922543E0,-1.257438660E-1,2.454241252E0
5.855719875E0,-2.127914667E0,1.219822407E0,-1.833782196E-1,2.459596533E0
5.873637844E0,-2.184530735E0,1.183868647E0,-1.881513596E-1,2.491810675E0
5.891557094E0,-2.203888893E0,1.147373438E0,-1.208009720E-1,2.487606266E0
5.909464077E0,-2.204623938E0,1.135109425E0,-9.173011780E-2,2.481381576E0
5.927395046E0,-2.176504850E0,1.147101283E0,-1.057844162E-1,2.462560671E0
5.945313320E0,-2.188222170E0,1.149997115E0,-1.388158798E-1,2.475899731E0
5.963232936E0,-2.214089632E0,1.107153893E0,-1.430873871E-1,2.479608163E0
5.981151393E0,-2.192963123E0,1.177771211E0,-5.208206177E-2,2.489768027E0
5.999070217E0,-2.256303549E0,1.090324402E0,-1.660013199E-1,2.511427770E0
6.016988918E0,-2.131866932E0,1.203868151E0,1.119956970E-1,2.450856621E0
6.034908351E0,-2.151350975E0,1.229290009E0,1.259574890E-1,2.480993799E0
6.052814235E0,-2.092883110E0,1.265077591E0,1.587142944E-1,2.450667511E0
6.070745754E0,-2.138474703E0,1.274268031E0,1.441545486E-1,2.493514308E0
6.088664760E0,-2.168755054E0,1.249655724E0,1.528759003E-1,2.507689964E0
6.106584255E0,-2.202064514E0,1.232529879E0,1.516399384E-1,2.528084788E0
6.124502590E0,-2.174032927E0,1.224642754E0,8.297824860E-2,2.496608586E0
6.142421352E0,-2.137850523E0,1.227665901E0,9.211540222E-2,2.466992840E0
6.160337123E0,-2.173438311E0,1.202088118E0,8.731460571E-2,2.485251249E0
6.178262600E0,-2.162643194E0,1.195100069E0,3.006172180E-2,2.471071320E0
6.196178432E0,-2.112114429E0,1.182820678E0,-3.438949585E-3,2.420765157E0
6.214097194E0,-2.087917805E0,1.187062144E0,-4.233264923E-2,2.402146820E0
6.232004604E0,-2.091371059E0,1.180162668E0,-6.749725342E-2,2.402326520E0
6.249931117E0,-2.059348106E0,1.166044474E0,-6.896972656E-3,2.366563311E0
6.267858242E0,-2.060828209E0,1.150255680E0,1.058006287E-1,2.362476415E0
6.285772975E0,-2.076972008E0,1.143121362E0,1.086730957E-1,2.373257047E0
6.303691311E0,-2.035470009E0,1.132290125E0,-3.291130066E-3,2.329212295E0
6.321610866E0,-2.052346706E0,1.150002718E0,-1.335172653E-1,2.356365870E0
6.339529689E0,-2.055234194E0,1.150556803E0,1.848316193E-2,2.355442671E0
6.357448391E0,-1.813825965E0,1.133840680E0,1.493940353E-1,2.144266284E0
6.375366909E0,-1.838163018E0,1.161552429E0,-3.746118546E-1,2.206440883E0
6.393286403E0,-2.411064148E0,1.103181720E0,-3.314208984E-1,2.672092821E0
6.411205227E0,-2.109743118E0,1.076990604E0,-4.189386368E-1,2.405500856E0
6.429124233E0,-1.774831772E0,1.046745658E0,-2.830324173E-1,2.079858562E0
6.447042934E0,-1.839691043E0,9.498569369E-1,-8.474349976E-2,2.072166208E0
6.464961879E0,-1.751492858E0,9.301436543E-1,-2.052021027E-2,1.983258815E0
6.482877590E0,-1.667618871E0,8.546729684E-1,-2.059288025E-1,1.885159211E0
6.500802700E0,-1.703073263E0,8.846440315E-1,-3.914165497E-1,1.958637414E0
6.518718410E0,-1.633367419E0,8.269248605E-1,-7.552871704E-1,1.980442516E0
6.536638027E0,-1.522642612E0,8.473614454E-1,-3.500699997E-1,1.777360669E0
6.554537807E0,-1.872986674E0,9.331520796E-1,-2.255620956E-1,2.104692411E0
6.572472133E0,-2.015875340E0,8.851577044E-1,1.778793335E-2,2.201720681E0
6.590397304E0,-1.946186543E0,9.096926451E-1,3.832702637E-1,2.182218793E0
6.608313747E0,-1.972103477E0,8.719437718E-1,6.918640137E-1,2.264542752E0
6.626231899E0,-2.018265247E0,9.083944559E-1,4.956636429E-1,2.268095576E0
6.644139125E0,-2.118230343E0,1.069025993E0,2.917165756E-1,2.390567908E0
6.662069484E0,-2.023080826E0,1.145051241E0,1.433982849E-1,2.329068792E0
6.679977199E0,-1.770853758E0,1.247790217E0,-3.024015427E-1,2.187315741E0
6.697907497E0,-1.579316378E0,1.272372842E0,-5.816011429E-1,2.109841880E0
6.715826625E0,-1.703601837E0,1.254235744E0,-4.546251297E-1,2.163804642E0
6.733745449E0,-2.083115578E0,1.100135565E0,-5.103788376E-1,2.410426379E0
6.751664882E0,-2.178098679E0,9.783551693E-1,-5.557203293E-1,2.451554155E0
6.769583400E0,-2.654041290E0,8.467754126E-1,-2.905750275E-2,2.786002173E0
6.787502224E0,-2.466959953E0,9.747297764E-1,4.305906296E-1,2.687265867E0
6.805420742E0,-1.908618569E0,9.994766712E-1,4.287490845E-1,2.196725799E0
6.823340358E0,-1.782968998E0,9.992885590E-1,1.837024689E-1,2.052145869E0
6.841258937E0,-1.966150522E0,9.649590254E-1,-1.146059036E-1,2.193177674E0
6.859178005E0,-2.245990038E0,9.668051004E-1,-3.005590439E-1,2.463639400E0
6.877080044E0,-2.293124199E0,1.042242289E0,-2.659196854E-1,2.532864161E0
6.895013087E0,-2.255299568E0,1.096292973E0,-4.560041428E-1,2.548759346E0
6.912937832E0,-2.343522549E0,1.193562746E0,-7.742700577E-1,2.741565992E0
6.930853664E0,-2.470296383E0,1.179421902E0,-6.987762451E-1,2.825188221E0
6.948772182E0,-2.299629450E0,1.135569692E0,-5.779199600E-1,2.629031307E0
6.966692348E0,-2.350484133E0,1.162508130E0,-3.029098511E-1,2.639688464E0
6.984607692E0,-2.493478060E0,1.087080121E0,-4.926300049E-2,2.720588699E0
7.002532314E0,-2.160443068E0,9.969668388E-1,-1.910295486E-1,2.387037791E0
7.020447963E0,-1.968437791E0,8.418062925E-1,-4.653615952E-1,2.190878040E0
7.038367702E0,-2.180992126E0,8.729405403E-1,-3.359861374E-1,2.373107357E0
7.056283473E0,-2.039250612E0,7.275035381E-1,-2.043552399E-1,2.174756428E0
7.074207606E0,-2.114135265E0,7.539174557E-1,-1.161967278E0,2.527474511E0
7.092123684E0,-2.178521156E0,1.063055158E0,-1.744631290E0,2.986599912E0
7.110043239E0,-1.943936110E0,1.110773683E0,-1.048684120E0,2.472335769E0
7.127959560E0,-1.807512045E0,9.833897352E-1,-3.287143707E-1,2.083796607E0
7.145883083E0,-2.152838469E0,7.973765135E-1,3.131971359E-1,2.317027238E0
7.163799770E0,-1.919562340E0,6.814998388E-1,1.255235672E-1,2.040813018E0
7.181719081E0,-2.088674545E0,8.080652952E-1,-1.224099159E0,2.552244038E0
7.213607711E0,-2.732431650E0,-3.318216801E-1,-3.428640366E-1,2.773777947E0
7.231515121E0,-1.929130077E0,6.345841885E-1,-2.908172607E-1,2.051539575E0
7.249444930E0,-8.926240206E-1,1.264568567E0,1.170741081E0,1.940759125E0
7.267363570E0,-3.161072731E-3,1.236551046E0,1.077157974E0,1.639920054E0
7.285271285E0,-3.689469099E-1,3.047585487E-2,3.802680969E-1,5.307112450E-1
7.303204269E0,-6.338231564E-1,-1.806395054E-1,3.603868484E-1,7.511598398E-1
7.321120894E0,-4.998360872E-1,-7.385332584E-1,8.601016998E-1,1.238968289E0
7.339040084E0,-9.229073524E-1,-9.272872210E-1,8.294410706E-1,1.549061671E0
7.356958419E0,-6.681895256E-1,-1.191651464E0,-7.498226166E-1,1.558442944E0
7.374866012E0,-7.863410115E-1,-1.345888615E0,-1.160711288E0,1.943450294E0
7.392797225E0,-1.598903418E0,-1.408533454E0,-8.156089783E-1,2.281595195E0
7.410710494E0,-1.644850731E0,-1.324996233E0,-5.379676819E-1,2.179577521E0
7.428632308E0,-1.193564057E0,-1.217696428E0,-2.974414825E-1,1.730852734E0
7.446557296E0,-7.728874683E-1,-1.157930613E0,1.278066635E-1,1.398031790E0
7.464473189E0,-4.283565879E-1,-9.704179764E-1,1.072359085E-1,1.066161318E0
7.482392074E0,-7.722747326E-1,-1.369631886E0,2.084789276E-1,1.586115768E0
7.500311385E0,-7.642275691E-1,-1.603953600E0,1.528139114E-1,1.783273120E0
7.518230575E0,-3.107080460E-1,-1.314347863E0,2.489366531E-1,1.373324162E0
7.536150008E0,-7.345603704E-1,-1.185304761E0,1.409749985E-1,1.401570642E0
7.554068160E0,-3.783780336E-1,-8.962374926E-1,-8.370780945E-2,9.764315525E-1
7.571987594E0,-3.098207116E-1,-1.370328784E0,-6.899261475E-2,1.406609338E0
7.589906783E0,-3.700284362E-1,-1.326457858E0,-2.912149429E-1,1.407557330E0
7.607825850E0,-7.341536283E-1,-8.845227957E-1,4.728002548E-1,1.242940951E0
7.625744186E0,-1.287333965E0,-5.108578205E-1,-9.065685272E-1,1.655315965E0
7.643663619E0,-1.292479992E0,-4.908995628E-1,-1.923300266E0,2.368664355E0
7.661583480E0,-5.284649134E-1,2.138900757E-2,-1.952363968E0,2.022735207E0
7.679501693E0,-6.241981983E-1,3.858702183E-1,-1.130101204E0,1.347459813E0
7.697420638E0,-6.021219492E-1,-9.666800499E-2,1.373004913E-1,6.250975682E-1
7.715339706E0,-4.664784670E-1,-5.308246613E-1,1.744041443E-1,7.278693473E-1
7.733254867E0,-5.147394538E-1,-6.930716038E-1,9.549045563E-1,1.287302476E0
7.751177779E0,-9.569358826E-1,-1.077463865E0,1.369032860E0,1.987688516E0
7.769097396E0,-1.133568406E0,-1.385266185E0,5.732793808E-1,1.879518285E0
7.787016097E0,-1.247568250E0,-1.443447471E0,-1.769037247E-1,1.916053774E0
7.804935348E0,-1.649641275E0,-1.318489552E0,1.272773743E-1,2.115639517E0
7.822854598E0,-1.789175510E0,-1.174189329E0,5.746145248E-1,2.215863588E0
7.840773299E0,-1.853387117E0,-1.204353571E0,3.737001419E-1,2.241687562E0
7.858692245E0,-1.870876312E0,-1.268767715E0,-5.033874512E-2,2.261080202E0
7.876611312E0,-1.793478727E0,-1.307979822E0,2.680988312E-1,2.235901193E0
7.894530867E0,-1.931670904E0,-1.323298097E0,6.698732376E-1,2.435405611E0
7.912449325E0,-1.989450216E0,-1.280494332E0,3.728752136E-1,2.395122924E0
7.930366195E0,-1.799799562E0,-1.133679032E0,8.498859406E-2,2.128785962E0
7.948289656E0,-1.416359425E0,-8.130291700E-1,2.006473541E-1,1.645402629E0
7.966198348E0,-1.378763199E0,-6.605305672E-1,-1.355543137E-1,1.534817110E0
7.984122542E0,-9.882830977E-1,-6.462246180E-1,-5.893573761E-1,1.319716581E0
8.002047775E0,-9.563493133E-1,-1.161639810E0,-5.848646164E-1,1.614335057E0
8.019963424E0,-1.298434377E0,-9.723341465E-1,-3.183279037E-1,1.653087468E0
8.037882857E0,-1.090754390E0,-7.131323814E-1,-1.216354370E-1,1.308853740E0
8.055801315E0,-8.227131367E-1,-2.981301546E-1,-1.486196518E-1,8.875957950E-1
8.073717696E0,-4.663994014E-1,-2.632308006E-2,-2.434368134E-1,5.267663508E-1
8.091643111E0,-4.120773673E-1,3.513944149E-2,-1.960783005E-1,4.576999420E-1
8.109558883E0,-6.102551222E-1,6.049549580E-2,-1.259622574E-1,6.260491270E-1
8.127477828E0,-6.541005969E-1,-7.449829578E-2,-3.071699142E-1,7.264646882E-1
8.145385055E0,-5.591591597E-1,-8.442389965E-2,3.819084167E-2,5.667847043E-1
8.163312850E0,-3.488594890E-1,-7.807779312E-2,5.021343231E-1,6.163910798E-1
8.181238204E0,-2.557414174E-1,-2.866065502E-2,6.299839020E-1,6.805180545E-1
8.199154037E0,-3.002770543E-1,-1.741732359E-1,2.273283005E-1,4.149467215E-1
8.217073226E0,-5.196332932E-1,-3.848826885E-1,-3.773765564E-1,7.487098962E-1
8.234992354E0,-6.853978038E-1,-7.843649387E-1,1.421134949E0,1.761994055E0
8.252911483E0,-1.065616608E0,-7.253260612E-1,-1.251249313E-1,1.295103431E0
8.270829818E0,-8.978957534E-1,-6.540747285E-1,-5.812358856E-2,1.112388820E0
8.288749618E0,-1.186891913E0,-4.606423378E-1,-1.993532181E-1,1.288660344E0
8.306668441E0,-1.348770380E0,-6.568002701E-1,-3.120040894E-1,1.532290666E0
8.324587813E0,-1.132645845E0,-1.034867525E0,-1.774740219E-1,1.544452794E0
8.342505843E0,-1.363251686E0,-9.741305113E-1,1.712083817E-1,1.684249899E0
8.360425704E0,-1.031703472E0,-7.995038033E-1,5.169973373E-1,1.403889110E0
8.378333968E0,-6.789033413E-1,-4.868481159E-1,1.913909912E-1,8.570655438E-1
8.396261032E0,-6.825435162E-1,-3.368793726E-1,-3.991250992E-1,8.594499450E-1
8.414185164E0,-7.572423220E-1,-2.190461159E-1,-2.992238998E-1,8.431678820E-1
8.432101424E0,-1.025367618E0,-4.696942568E-1,1.384687424E-1,1.136294433E0
8.450020736E0,-9.879404306E-1,-6.065769196E-1,4.282617569E-1,1.235868110E0
8.467924910E0,-1.040378690E0,-6.454573870E-1,-2.639150620E-1,1.252459267E0
8.485855757E0,-1.428911924E0,-7.224459648E-1,-5.562276840E-1,1.695024099E0
8.503780441E0,-1.323979616E0,-6.512860060E-1,-1.049652100E-1,1.479227224E0
8.521696761E0,-1.063165069E0,-7.482125759E-1,1.844692230E-1,1.313076889E0
8.539616256E0,-1.050171137E0,-8.129241467E-1,5.184373856E-1,1.425651573E0
8.557534530E0,-3.962449431E-1,-8.994337320E-1,2.298155785E0,2.499502171E0
8.575453902E0,-1.071793079E0,-1.199960828E0,4.774570465E-2,1.609635377E0
8.593372603E0,-9.597123265E-1,-8.073254228E-1,2.332839966E-1,1.275634552E0
8.611292403E0,-1.075169683E0,-5.735453367E-1,-3.980865479E-1,1.281958267E0
8.629210616E0,-9.740331769E-1,-5.628925562E-1,-5.663290024E-1,1.259490849E0
8.647129806E0,-9.493688941E-1,-6.004618406E-1,-4.579744339E-1,1.213093690E0
8.665048873E0,-1.135995269E0,-6.064450741E-1,-2.501106262E-1,1.311798843E0
8.682968367E0,-1.217930555E0,-5.560618639E-1,-1.450777054E-1,1.346702333E0
8.700883041E0,-1.363950729E0,-7.814593315E-1,9.576320648E-2,1.574868525E0
8.718806197E0,-1.190610766E0,-6.677144766E-1,3.534412384E-1,1.410077065E0
8.736725265E0,-7.860225439E-1,-5.539731979E-1,2.843551636E-1,1.002783926E0
8.754644332E0,-5.581305027E-1,-4.581587315E-1,7.708549500E-3,7.221346848E-1
8.772562789E0,-8.744184375E-1,-6.387431622E-1,1.756658554E-1,1.097022754E0
8.790481978E0,-1.007561564E0,-6.908106804E-1,2.698898315E-3,1.221641104E0
8.808399764E0,-1.023004889E0,-7.035745382E-1,8.003425598E-2,1.244171056E0
8.826321578E0,-1.064493179E0,-5.641747713E-1,3.069019318E-2,1.205147621E0
8.844239120E0,-1.024711013E0,-5.672780275E-1,-7.673072815E-2,1.173765149E0
8.862158187E0,-1.125599027E0,-6.488215923E-1,8.140945435E-2,1.301756554E0
8.880065536E0,-1.215642571E0,-7.550640106E-1,3.234958649E-2,1.431417136E0
8.897996444E0,-1.113529325E0,-7.006467581E-1,1.761846542E-1,1.327363729E0
8.915915023E0,-1.266883373E0,-7.472566366E-1,1.776866913E-1,1.481539241E0
8.933834518E0,-1.342164516E0,-6.182987690E-1,3.247833252E-1,1.513004681E0
8.951753280E0,-1.426558971E0,-6.648179293E-1,2.862253189E-1,1.599680690E0
8.969672774E0,-1.081808090E0,-5.482375622E-1,2.572927475E-1,1.239787372E0
8.987590743E0,-1.192148924E0,-8.282364011E-1,2.038555145E-1,1.465862089E0
9.005510299E0,-9.782025218E-1,-8.581440449E-1,-1.995563507E-2,1.301418304E0
9.023435409E0,-8.772625923E-1,-8.961025476E-1,2.753772736E-1,1.283908904E0
9.041348983E0,-8.417900801E-1,-7.047387362E-1,3.702487946E-1,1.158598893E0
9.059267135E0,-8.713696599E-1,-7.399916649E-1,2.040367126E-1,1.161250933E0
9.077186568E0,-8.627710938E-1,-6.512166262E-1,2.581415176E-1,1.111347874E0
9.095105514E0,-9.036082625E-1,-5.518742800E-1,3.349189758E-1,1.110515121E0
9.113024520E0,-9.160885811E-1,-4.437845945E-1,6.465311050E-1,1.205887857E0
9.130942305E0,-1.077313185E0,-3.169920444E-1,1.405429840E-1,1.131742013E0
9.148863205E0,-8.873227239E-1,-4.866318107E-1,4.062747955E-2,1.012819198E0
9.166781844E0,-8.464668989E-1,-6.164302230E-1,8.475208282E-2,1.050559540E0
9.184700728E0,-1.061324596E0,-7.660963535E-1,1.383295059E-1,1.316225123E0
9.202614791E0,-7.705444098E-1,-8.748958707E-1,2.963247299E-1,1.202908898E0
9.220535384E0,-1.247029305E0,-8.188372254E-1,3.321781158E-1,1.528371286E0
9.238460800E0,-1.243793964E0,-6.326889396E-1,-2.323818207E-2,1.395657097E0
9.256376998E0,-9.528847337E-1,-7.320207357E-1,6.071186066E-2,1.203133244E0
9.274295333E0,-8.176425099E-1,-7.441993952E-1,9.433078766E-2,1.109626203E0
9.292214645E0,-9.798388481E-1,-6.098399162E-1,7.314682007E-2,1.156433893E0
9.310133590E0,-1.051469564E0,-6.023572683E-1,3.038692474E-2,1.212165784E0
9.328053023E0,-1.098689079E0,-5.852841735E-1,-9.868812561E-2,1.248765231E0
9.345971481E0,-1.076689720E0,-6.296393275E-1,-7.297134399E-2,1.249412363E0
9.363890487E0,-1.029544473E0,-6.454696059E-1,7.693386078E-2,1.217584351E0
9.381809615E0,-9.723105431E-1,-6.280864477E-1,1.550559998E-1,1.167871029E0
9.399728805E0,-1.056473255E0,-6.119068265E-1,1.905879974E-1,1.235673698E0
9.417647750E0,-1.054805756E0,-5.494045615E-1,1.676359177E-1,1.201067173E0
9.435566512E0,-1.057746768E0,-5.322684050E-1,1.826906204E-1,1.198129268E0
9.453485580E0,-1.071538925E0,-5.625621676E-1,1.028833389E-1,1.214601516E0
9.471404952E0,-1.036765933E0,-5.314509869E-1,7.510089874E-2,1.167460447E0
9.489323715E0,-1.021413445E0,-5.822445154E-1,1.559410095E-1,1.186006619E0
9.507242721E0,-9.893043041E-1,-5.828824043E-1,1.160564423E-1,1.154098783E0
9.525161483E0,-1.055311799E0,-5.990058780E-1,2.453060150E-1,1.238008916E0
9.543076338E0,-1.037313938E0,-6.087042689E-1,8.412742615E-2,1.205661029E0
9.561004074E0,-1.031508327E0,-6.131423116E-1,3.129577637E-2,1.200388415E0
9.578918990E0,-1.013879180E0,-6.416868567E-1,7.734870911E-2,1.202370923E0
9.596837752E0,-9.810693264E-1,-6.617243290E-1,4.270648956E-2,1.184145242E0
9.614745223E0,-1.038025618E0,-7.079110742E-1,1.518402100E-1,1.265579204E0
9.632675277E0,-1.009453773E0,-7.241389751E-1,1.617221832E-1,1.252808142E0
9.650594832E0,-1.000000715E0,-7.249287367E-1,3.203868866E-2,1.235536151E0
9.668513656E0,-9.782100916E-1,-7.223725319E-1,4.024696350E-2,1.216690953E0
9.686433028E0,-9.749211073E-1,-7.152451277E-1,5.798435211E-2,1.210540765E0
9.704351608E0,-9.898722768E-1,-6.632841825E-1,1.925373077E-2,1.191706229E0
9.722270797E0,-9.965964556E-1,-6.467244029E-1,-1.556587219E-2,1.188149504E0
9.740189681E0,-9.874094725E-1,-6.335893273E-1,-4.658508301E-2,1.174130773E0
9.758109298E0,-9.990387559E-1,-5.803275704E-1,-3.937625885E-2,1.156031580E0
9.776027572E0,-1.038513899E0,-6.200153232E-1,8.274555206E-2,1.212343576E0
9.793944259E0,-1.055758119E0,-6.217671037E-1,2.380418777E-1,1.248152023E0
9.811868392E0,-1.093654871E0,-6.212413907E-1,2.270336151E-1,1.278110365E0
9.829784957E0,-1.065511703E0,-6.404159069E-1,2.928018570E-1,1.277176829E0
9.847691695E0,-1.079976797E0,-6.131861806E-1,2.492656708E-1,1.266680918E0
9.865619795E0,-1.140697598E0,-6.901346445E-1,1.054840088E-1,1.337386898E0
9.883544784E0,-9.974240065E-1,-5.505118966E-1,5.287742615E-2,1.140488500E0
9.901461348E0,-1.005766630E0,-6.668054461E-1,-2.431201935E-2,1.206974354E0
9.919379745E0,-9.344375134E-1,-6.587939858E-1,-5.872726440E-2,1.144828316E0
9.937288863E0,-9.599519372E-1,-6.353200078E-1,-7.119178772E-3,1.151168935E0
9.955217513E0,-1.004885077E0,-6.469199061E-1,3.995704651E-2,1.195782568E0
9.973137069E0,-9.910675883E-1,-6.829818487E-1,6.304740906E-2,1.205261028E0
9.991055404E0,-9.997217655E-1,-6.859284639E-1,1.530065536E-1,1.222028016E0
1.000897478E1,-9.904377460E-1,-7.082284093E-1,1.420631409E-1,1.225861470E0
1.002689378E1,-9.604620934E-1,-6.937124133E-1,1.706056595E-1,1.197009038E0
1.004481309E1,-9.367685914E-1,-6.707658768E-1,1.283254623E-1,1.159279811E0
1.006273143E1,-9.301174283E-1,-6.629637480E-1,1.188011169E-1,1.148369743E0
1.008065098E1,-9.404419661E-1,-6.779226065E-1,1.847305298E-1,1.173940169E0
1.009856962E1,-9.355322123E-1,-6.394441724E-1,1.273889542E-1,1.140323338E0
1.011648888E1,-9.625907540E-1,-6.654609442E-1,7.486724854E-2,1.172614315E0
1.013440746E1,-9.710667729E-1,-6.935921311E-1,-8.206844330E-2,1.196150472E0
1.015232670E1,-9.189885855E-1,-7.389665246E-1,-2.235231400E-1,1.200239201E0
1.017024443E1,-8.108665347E-1,-7.087725401E-1,-5.898094177E-2,1.078583238E0
1.018816576E1,-7.569910884E-1,-6.452079415E-1,-1.693344116E-2,9.947942185E-1
1.020608470E1,-7.048864365E-1,-6.016958952E-1,-3.245353699E-2,9.273381641E-1
1.022400273E1,-8.483459353E-1,-5.472837090E-1,1.808576584E-1,1.025631404E0
1.024192168E1,-1.017725229E0,-4.927429557E-1,2.824268341E-1,1.165472084E0
1.025984111E1,-9.844081998E-1,-3.097952604E-1,9.611120224E-1,1.410237188E0
1.027775487E1,-1.568952322E0,-6.524387598E-1,7.715530396E-1,1.866167682E0
1.029568291E1,-1.769800186E0,-1.817213416E0,1.151357651E0,2.785692327E0
1.031359746E1,-1.717872024E0,-8.021310568E-1,1.102762222E-1,1.899120683E0
1.033151701E1,-1.048636675E0,-4.132120609E-1,2.324390411E-1,1.150830566E0
1.034943626E1,-8.430843949E-1,-2.558343410E-1,-3.698377609E-1,9.555220963E-1
1.036735228E1,-7.192145586E-1,-2.535500526E-1,-1.176881790E-1,7.716266701E-1
1.038527598E1,-6.762745380E-1,-2.809498310E-1,-2.632846832E-1,7.782023405E-1
1.040319298E1,-7.588239908E-1,-5.125369430E-1,-1.337366104E-1,9.254152840E-1
1.042111119E1,-8.567264080E-1,-6.170989275E-1,-3.497362137E-1,1.112252958E0
1.043903056E1,-7.634710073E-1,-5.909888148E-1,-2.688474655E-1,1.002214906E0
1.045694188E1,-7.191283107E-1,-6.739133596E-1,-2.276973724E-1,1.011509188E0
1.047486992E1,-8.432571292E-1,-8.486937284E-1,-1.152725220E-1,1.201936515E0
1.049278728E1,-9.684209824E-1,-9.835121632E-1,-7.015228271E-3,1.380284242E0
1.051070451E1,-1.069955230E0,-1.133847952E0,2.274951935E-1,1.575490220E0
1.052862706E1,-7.202168703E-1,-1.033485174E0,5.674591064E-1,1.381598271E0
1.054654497E1,-7.834945917E-1,-7.202159166E-1,-7.520389557E-2,1.066878797E0
1.056446324E1,-8.283593655E-1,-7.578912377E-1,-3.392829895E-1,1.172898680E0
1.058238212E1,-9.612916112E-1,-6.008956432E-1,-1.445016861E-1,1.142820140E0
1.060030125E1,-9.968851209E-1,-4.819700718E-1,2.157411575E-1,1.128104313E0
1.061822050E1,-9.294598699E-1,-5.718116760E-1,-2.661132812E-2,1.091591684E0
1.063613896E1,-9.443321824E-1,-4.574273825E-1,-1.041479111E-1,1.054442918E0
1.065405852E1,-9.649029970E-1,-3.495899439E-1,-6.258869171E-2,1.028186883E0
1.067196294E1,-9.929133654E-1,-6.526991129E-1,4.012327194E-1,1.254145437E0
1.068989574E1,-9.529265761E-1,-4.036411047E-1,1.984243393E-1,1.053739730E0
1.070781572E1,-7.399858832E-1,-4.182353020E-1,-2.744903564E-1,8.932216024E-1
1.072573448E1,-9.383038282E-1,-9.533244967E-1,-8.976135254E-1,1.610885381E0
1.074365312E1,-1.059954882E0,-9.093800783E-1,3.574085236E-2,1.397051855E0
1.076157262E1,-1.226506352E0,-6.943393350E-1,1.660194397E-1,1.419150238E0
1.077949120E1,-1.110412002E0,-6.532735825E-1,5.720596313E-1,1.409621725E0
1.079741020E1,-1.145066023E0,-7.927137017E-1,4.150161743E-1,1.453206673E0
1.081532921E1,-8.072869182E-1,-6.215036511E-1,-8.064460754E-2,1.021999271E0
1.083324815E1,-9.880416989E-1,-9.417477846E-1,-4.179668427E-2,1.365599594E0
1.085116673E1,-9.734278321E-1,-8.661479354E-1,-1.572446823E-1,1.312440429E0
1.086908604E1,-9.877203703E-1,-6.727979779E-1,2.076339722E-2,1.195273930E0
1.088699101E1,-8.004075289E-1,-6.838245392E-1,-3.438930511E-1,1.107488439E0
1.090492406E1,-7.774804235E-1,-5.587748289E-1,-6.138172150E-1,1.137311167E0
1.092284251E1,-7.921831012E-1,-4.657284021E-1,-6.661529541E-1,1.134996374E0
1.094076207E1,-4.461959004E-1,-5.114555359E-1,-3.843879700E-1,7.800202935E-1
1.095868095E1,-5.382530093E-1,-4.648228288E-1,1.467065811E-1,7.261538302E-1
1.097660026E1,-6.797476411E-1,-5.884518027E-1,2.965288162E-1,9.467110005E-1
1.099450432E1,-1.012659788E0,-3.936086893E-1,3.368988037E-1,1.137500967E0
1.101243779E1,-1.017562628E0,-4.831863642E-1,8.773803711E-2,1.129867571E0
1.103035698E1,-1.027456164E0,-4.137557745E-1,1.412887573E-1,1.116612074E0
1.104827629E1,-1.263801575E0,-2.350003719E-1,3.440732956E-1,1.330716359E0
1.106619432E1,-1.557393432E0,-1.953781843E-1,2.205963135E-1,1.585026709E0
1.108409721E1,-1.456766605E0,-1.639600992E-1,-5.741119385E-4,1.465964592E0
1.110203007E1,-1.485168457E0,-2.648649216E-1,2.274036407E-1,1.525644516E0
1.111995464E1,-1.312895417E0,-4.036256075E-1,3.258085251E-1,1.411651233E0
1.113787047E1,-9.128119946E-1,-4.938127398E-1,7.316198349E-1,1.269781218E0
1.115578960E1,-1.223210812E0,-1.120331883E0,2.044239044E0,2.632546579E0
1.117370854E1,-4.664417505E-1,-8.210265636E-2,3.545923233E-1,5.916455599E-1
1.119162773E1,-8.041104078E-1,-5.776017308E-1,9.995651245E-2,9.950922630E-1
1.120954619E1,-9.201829433E-1,-6.509736180E-1,2.909822464E-1,1.164119396E0
1.122746532E1,-9.511034489E-1,-5.687114596E-1,-9.775447845E-2,1.112468621E0
1.124538438E1,-9.225216508E-1,-6.364942789E-1,-3.310213089E-1,1.168651475E0
1.126330376E1,-8.211612105E-1,-6.303508878E-1,-2.738761902E-1,1.070820313E0
1.128122246E1,-7.592374086E-1,-6.532035470E-1,-1.875247955E-1,1.018961170E0
1.129914116E1,-7.404064536E-1,-6.869990826E-1,-1.009235382E-1,1.015064046E0
1.131706016E1,-7.186471224E-1,-7.067793012E-1,-6.735706329E-2,1.010211681E0
1.133496812E1,-7.322825193E-1,-7.115714550E-1,-5.850410461E-2,1.022738654E0
1.135289763E1,-7.456359267E-1,-6.823201776E-1,-1.266927719E-1,1.018619074E0
1.137081755E1,-8.080842495E-1,-6.099514961E-1,-2.568597794E-1,1.044518036E0
1.138873601E1,-8.625270724E-1,-5.861939788E-1,-3.210306168E-1,1.091163136E0
1.140663731E1,-8.771598339E-1,-5.633165836E-1,-2.481212616E-1,1.071587191E0
1.142457243E1,-8.415188193E-1,-5.251322985E-1,-2.180089951E-1,1.015601189E0
1.144249474E1,-8.387694955E-1,-5.275334120E-1,-8.353996277E-2,9.943865912E-1
1.146041197E1,-8.760737777E-1,-5.456351042E-1,4.651355743E-2,1.033143960E0
1.147833122E1,-8.764055967E-1,-5.167626739E-1,1.145486832E-1,1.023841703E0
1.149623796E1,-8.944570422E-1,-4.801195860E-1,8.806610107E-2,1.018981774E0
1.151416899E1,-9.719792008E-1,-4.831117392E-1,6.558609009E-2,1.087401515E0
1.153208800E1,-9.993165135E-1,-4.430549741E-1,9.071636200E-2,1.096886805E0
1.155000688E1,-9.000693560E-1,-4.564265013E-1,2.438335419E-1,1.038221938E0
1.156792534E1,-9.679324627E-1,-4.620192051E-1,3.977832794E-1,1.143934673E0
1.158584471E1,-1.036319375E0,-4.870376587E-1,4.518985748E-1,1.231006032E0
1.160376396E1,-1.031423330E0,-4.650927186E-1,3.634443283E-1,1.188375826E0
1.162168297E1,-9.909520149E-1,-4.316053391E-1,2.291116714E-1,1.104880637E0
1.163960136E1,-9.569909573E-1,-4.305534363E-1,1.092815399E-1,1.055059434E0
1.165751811E1,-9.061713219E-1,-4.370926023E-1,7.575607300E-2,1.008927842E0
1.167544237E1,-8.194649816E-1,-4.728139639E-1,8.979225159E-2,9.503360189E-1
1.169335899E1,-7.823694348E-1,-5.044363141E-1,6.521987915E-2,9.331728458E-1
1.171127714E1,-7.171973586E-1,-5.422585607E-1,2.169322968E-2,8.993814508E-1
1.172919438E1,-6.982535124E-1,-5.690615177E-1,-1.748085022E-2,9.009409296E-1
1.174711546E1,-7.463986874E-1,-6.102595329E-1,-3.696060181E-2,9.648283703E-1
1.176503484E1,-7.206414938E-1,-6.097359657E-1,-4.303932190E-3,9.439918614E-1
1.178295286E1,-7.069646716E-1,-6.180957556E-1,4.288673401E-2,9.400429149E-1
1.180087218E1,-7.554755807E-1,-6.404381990E-1,9.003448486E-2,9.944901449E-1
1.181877928E1,-7.695196867E-1,-6.360511184E-1,1.229314804E-1,1.005899459E0
1.183670756E1,-7.917905450E-1,-6.256160736E-1,4.231071472E-2,1.010008879E0
1.185462193E1,-7.727527618E-1,-5.772718191E-1,-7.147598267E-2,9.672116626E-1
1.187254814E1,-7.526409030E-1,-5.481887460E-1,-1.194314957E-1,9.387454992E-1
1.189046410E1,-7.493121028E-1,-5.430135131E-1,-1.035404205E-2,9.254401704E-1
1.190838920E1,-7.944912314E-1,-5.432946086E-1,9.761905670E-2,9.674269113E-1
1.192630504E1,-8.459063768E-1,-5.418222547E-1,1.918792725E-1,1.022715312E0
1.194422392E1,-9.053990245E-1,-5.176984668E-1,1.435079575E-1,1.052783753E0
1.196214287E1,-9.580304623E-1,-5.159354806E-1,7.197856903E-2,1.090501124E0
1.198006206E1,-9.575111866E-1,-5.139005780E-1,-3.829956055E-3,1.086708859E0
1.199798045E1,-9.409690499E-1,-4.810238481E-1,-2.743053436E-2,1.057146693E0
1.201590001E1,-9.589086771E-1,-5.078767538E-1,-4.639625549E-2,1.086092657E0
1.203381840E1,-9.383274913E-1,-5.375908017E-1,-5.124664307E-2,1.082630394E0
1.205172984E1,-9.175699949E-1,-5.651080012E-1,-8.567619324E-2,1.081028288E0
1.206965269E1,-8.692251444E-1,-5.802708864E-1,-5.327701569E-2,1.046472691E0
1.208757927E1,-7.820135951E-1,-5.685508251E-1,-3.017902374E-2,9.673190152E-1
1.210549443E1,-7.232637405E-1,-5.623362064E-1,-2.907752991E-3,9.161555013E-1
1.212341362E1,-7.145285606E-1,-5.547069907E-1,7.286834717E-2,9.075024548E-1
1.214132738E1,-7.430886030E-1,-5.564021468E-1,1.005201340E-1,9.337388919E-1
1.215925066E1,-7.485906482E-1,-5.178351998E-1,4.739284515E-2,9.114753614E-1
1.217717137E1,-8.073614836E-1,-5.182790160E-1,3.202915192E-2,9.599331071E-1
1.219508940E1,-8.434878588E-1,-5.248768926E-1,2.974414825E-2,9.939075584E-1
1.221300786E1,-8.735988140E-1,-5.592006445E-1,6.608772278E-2,1.039349718E0
1.223091527E1,-8.714902997E-1,-5.242457986E-1,1.196384430E-2,1.017090032E0
1.224884630E1,-8.935606480E-1,-5.591302514E-1,-1.308345795E-2,1.054157695E0
1.226676524E1,-8.807401657E-1,-5.522058606E-1,3.365230560E-2,1.040080300E0
1.228468358E1,-8.455344439E-1,-5.578252077E-1,6.541347504E-2,1.015074569E0
1.230260326E1,-8.278108835E-1,-5.502958298E-1,1.599435806E-1,1.006815926E0
1.232052202E1,-8.524119258E-1,-5.228683949E-1,1.734695435E-1,1.014933068E0
1.233844127E1,-8.207795024E-1,-4.997199178E-1,1.307563782E-1,9.697918427E-1
1.235635948E1,-8.255114555E-1,-4.926640391E-1,1.017789841E-1,9.667191838E-1
1.237427489E1,-8.205007315E-1,-5.003892779E-1,1.063327789E-1,9.669113401E-1
1.239219902E1,-8.343017697E-1,-5.140890479E-1,2.962684631E-2,9.804206965E-1
1.241011351E1,-8.433708549E-1,-5.019537807E-1,-1.377677917E-2,9.815405220E-1
1.242803728E1,-8.535470963E-1,-4.962192178E-1,-5.746555328E-2,9.889784868E-1
1.244595439E1,-8.256880641E-1,-5.256218910E-1,-2.476787567E-2,9.791080631E-1
1.246386522E1,-7.941631079E-1,-5.438238382E-1,1.200294495E-2,9.625920629E-1
1.248179277E1,-7.968139648E-1,-5.531427860E-1,1.123714447E-2,9.700544880E-1
1.249971104E1,-7.899199724E-1,-5.793103576E-1,7.767677307E-2,9.826534151E-1
1.251763017E1,-7.861251831E-1,-5.442233086E-1,6.281089783E-2,9.581842318E-1
1.253554948E1,-8.354576826E-1,-5.165761709E-1,-1.339817047E-2,9.823543102E-1
1.255346593E1,-8.548057079E-1,-4.971370101E-1,-1.133708954E-1,9.953345995E-1
1.257138615E1,-8.475520611E-1,-4.827497602E-1,-1.232089996E-1,9.831440814E-1
1.258930705E1,-7.971612215E-1,-4.733539224E-1,-6.646823883E-2,9.294880180E-1
1.260722490E1,-7.260089517E-1,-4.778009653E-1,-4.889011383E-2,8.705015816E-1
1.262514433E1,-7.298128009E-1,-4.782558084E-1,2.704620361E-3,8.725609764E-1
1.264306273E1,-7.168015838E-1,-4.899924397E-1,6.798458099E-2,8.709299655E-1
1.266098180E1,-7.118795514E-1,-5.118203163E-1,1.337633133E-1,8.869189117E-1
1.267890068E1,-7.276340723E-1,-5.119259357E-1,1.707811356E-1,9.059170509E-1
1.269681987E1,-7.775617838E-1,-5.164886713E-1,1.651315689E-1,9.479616607E-1
1.271473827E1,-7.730278969E-1,-5.268629789E-1,8.338832855E-2,9.392072941E-1
1.273265764E1,-7.684984207E-1,-5.103870630E-1,4.012870789E-2,9.234149067E-1
1.275055858E1,-7.692281008E-1,-5.506014824E-1,7.282066345E-2,9.487764291E-1
1.276849571E1,-7.890871167E-1,-5.433077812E-1,7.802677155E-2,9.612127756E-1
1.278641380E1,-7.559558749E-1,-5.628245473E-1,5.411148071E-2,9.440173771E-1
1.280433055E1,-7.966822982E-1,-5.687213540E-1,-3.446578979E-3,9.788557308E-1
1.282225523E1,-7.742965817E-1,-5.678764582E-1,-4.687595367E-2,9.613616506E-1
1.284017143E1,-7.465785146E-1,-5.988577604E-1,-1.467609406E-2,9.571966796E-1
1.285809007E1,-7.238909602E-1,-6.050299406E-1,5.168437958E-2,9.448548176E-1
1.287599467E1,-7.924350500E-1,-5.995663404E-1,9.429645538E-2,9.981607719E-1
1.289392454E1,-8.288307190E-1,-6.009367704E-1,3.262615204E-2,1.024280151E0
1.291185081E1,-8.112331629E-1,-5.815232992E-1,-6.774330139E-2,1.000428782E0
1.292976561E1,-7.508472800E-1,-5.634907484E-1,-2.066421509E-2,9.389997184E-1
1.294768504E1,-7.368224859E-1,-5.407311916E-1,6.036758423E-2,9.159376849E-1
1.296560380E1,-7.762909532E-1,-5.497324467E-1,6.479167938E-2,9.534313654E-1
1.298352306E1,-7.956289053E-1,-5.373479128E-1,3.162002563E-2,9.606081201E-1
1.300144121E1,-8.069740534E-1,-5.249941349E-1,-1.101875305E-2,9.627810641E-1
1.301936064E1,-7.957322001E-1,-5.189766884E-1,7.834434509E-3,9.500462703E-1
1.303727952E1,-7.991000414E-1,-5.068591833E-1,6.492805481E-2,9.485160832E-1
1.305519890E1,-8.045241833E-1,-4.783428907E-1,3.623676300E-2,9.366878806E-1
1.307311693E1,-8.130668402E-1,-5.236251354E-1,-3.543186188E-2,9.677377671E-1
1.309103618E1,-8.063261509E-1,-4.952917993E-1,-1.644802094E-2,9.464387806E-1
1.310895531E1,-7.840130925E-1,-4.932776392E-1,-2.549171448E-3,9.262860556E-1
1.312687498E1,-7.382126451E-1,-4.767015576E-1,-2.218151093E-2,8.790303202E-1
1.314479265E1,-7.450955510E-1,-5.226961970E-1,6.389617920E-4,9.101533403E-1
1.316271190E1,-7.972792983E-1,-5.203287005E-1,4.780197144E-2,9.532477457E-1
1.318063115E1,-7.729504108E-1,-5.240192413E-1,-1.508808136E-2,9.339572544E-1
1.319855034E1,-7.435800433E-1,-5.460435748E-1,-4.452133179E-2,9.236108571E-1
1.321646873E1,-7.182229161E-1,-5.560024977E-1,-4.076862335E-2,9.092002064E-1
1.323438811E1,-7.058311701E-1,-5.555388927E-1,-4.739570618E-2,8.994817702E-1
1.325230669E1,-6.782820821E-1,-4.980098009E-1,-9.108734131E-2,8.463907185E-1
1.327022581E1,-7.014207244E-1,-4.653044045E-1,-4.399681091E-2,8.428730277E-1
1.328814281E1,-7.093497515E-1,-4.802994728E-1,4.503726959E-2,8.578420654E-1
1.330606065E1,-6.996099949E-1,-4.489877820E-1,1.626625061E-1,8.470556441E-1
1.332398521E1,-6.936460137E-1,-4.740207195E-1,1.848201752E-1,8.602319060E-1
1.334190160E1,-7.412170172E-1,-4.525706768E-1,2.121219635E-1,8.939902748E-1
1.335982030E1,-7.782168388E-1,-4.818271101E-1,2.164258957E-1,9.405418548E-1
1.337773936E1,-7.926720977E-1,-4.677013755E-1,1.782236099E-1,9.374632186E-1
1.339565825E1,-7.951713204E-1,-4.920664132E-1,1.454410553E-1,9.463508252E-1
1.341357719E1,-7.797135115E-1,-5.023645163E-1,3.723907471E-2,9.282833704E-1
1.343149583E1,-7.158183455E-1,-5.069388747E-1,-1.143503189E-1,8.845670817E-1
1.344941508E1,-6.907948256E-1,-5.373061895E-1,-1.703901291E-1,8.915874766E-1
1.346733403E1,-6.289182305E-1,-5.075823069E-1,-1.839570999E-1,8.288655823E-1
1.348525304E1,-6.599780321E-1,-5.021058321E-1,-1.455898285E-1,8.419487322E-1
1.350317162E1,-6.635378599E-1,-5.306705236E-1,-1.084012985E-1,8.565305235E-1
1.352107884E1,-6.898066998E-1,-5.273035765E-1,-2.803134918E-2,8.687163526E-1
1.353901030E1,-7.197918892E-1,-4.866766930E-1,-9.192466736E-3,8.689298410E-1
1.355692863E1,-7.522894144E-1,-4.535998702E-1,5.740165710E-2,8.803335479E-1
1.357482860E1,-8.368263841E-1,-4.158929586E-1,1.526870728E-1,9.468678325E-1
1.359276634E1,-8.633670807E-1,-3.648783565E-1,2.199373245E-1,9.627623579E-1
1.361067540E1,-8.941561580E-1,-3.700695634E-1,1.778469086E-1,9.839188175E-1
1.362859868E1,-8.935697079E-1,-3.841572404E-1,4.535484314E-2,9.737046112E-1
1.364652592E1,-8.918295503E-1,-3.662054539E-1,-5.871772766E-2,9.658748121E-1
1.366444237E1,-8.228172064E-1,-3.812968731E-1,-6.292819977E-2,9.090519341E-1
1.368236137E1,-8.088873029E-1,-3.944163322E-1,4.792213440E-3,8.999365962E-1
1.370026872E1,-7.782756090E-1,-4.513627291E-1,7.084560394E-2,9.024745627E-1
1.371819847E1,-7.917445302E-1,-4.878436327E-1,7.101440430E-2,9.326810048E-1
1.373611772E1,-7.136720419E-1,-4.860994816E-1,-7.188701630E-2,8.664803705E-1
1.375403685E1,-6.265923977E-1,-4.783757925E-1,-2.140903473E-1,8.168819428E-1
1.377195610E1,-5.810568929E-1,-4.412391782E-1,-2.082004547E-1,7.587269301E-1
1.378987450E1,-5.178747177E-1,-4.068742990E-1,-1.081123352E-1,6.674048213E-1
1.380779356E1,-5.199726224E-1,-4.200721383E-1,-2.706336975E-2,6.690026572E-1
1.382571245E1,-5.937675834E-1,-4.000863433E-1,-3.293037415E-3,7.159887354E-1
1.384362016E1,-6.496698260E-1,-4.138137698E-1,-2.824687958E-2,7.707857064E-1
1.386154741E1,-6.448954344E-1,-4.320431948E-1,-1.008901596E-1,7.827708910E-1
1.387947246E1,-5.944367051E-1,-4.117717743E-1,-1.348104477E-1,7.355846976E-1
1.389738798E1,-5.231943130E-1,-3.871580958E-1,-6.792354584E-2,6.543984172E-1
1.391530742E1,-5.157641768E-1,-3.902889490E-1,7.941246033E-3,6.468394030E-1
1.393322551E1,-4.844999313E-1,-3.852264285E-1,-6.608009338E-3,6.190179727E-1
1.395114482E1,-5.140756369E-1,-3.956683278E-1,-1.115303040E-1,6.582295912E-1
1.396906413E1,-5.374979377E-1,-3.883521557E-1,-1.695957184E-1,6.844590108E-1
1.398698314E1,-5.829249620E-1,-4.214525819E-1,-5.589103699E-2,7.214898462E-1
1.400490160E1,-6.189312935E-1,-4.756582975E-1,1.243457794E-1,7.904357247E-1
1.402281102E1,-6.472027302E-1,-5.169625878E-1,2.857570648E-1,8.762298735E-1
1.404073643E1,-6.983794570E-1,-5.364269018E-1,3.047485352E-1,9.318580131E-1
1.405866179E1,-6.816306114E-1,-5.051873326E-1,2.005729675E-1,8.718165213E-1
1.407657738E1,-7.137840986E-1,-4.642944336E-1,4.437923431E-2,8.526585348E-1
1.409449663E1,-8.116725087E-1,-4.336887598E-1,-1.109437943E-1,9.269340469E-1
1.411241533E1,-8.340862989E-1,-3.861047029E-1,-1.999664307E-1,9.406186098E-1
1.413032982E1,-8.535542488E-1,-3.823809028E-1,-2.504653931E-1,9.682473463E-1
1.414825761E1,-8.484544754E-1,-3.688156605E-1,-3.256101608E-1,9.807762054E-1
1.416617216E1,-7.973067760E-1,-3.867873549E-1,-3.436651230E-1,9.504779165E-1
1.418409117E1,-7.545858026E-1,-4.439178109E-1,-3.480215073E-1,9.421155586E-1
1.420201036E1,-7.114508152E-1,-4.720904231E-1,-3.145551682E-1,9.099321864E-1
1.421992839E1,-7.529896498E-1,-5.225737691E-1,-2.142734528E-1,9.412703487E-1
1.423784794E1,-7.862197757E-1,-5.436432958E-1,-2.753009796E-1,9.947261925E-1
1.425575462E1,-7.544274330E-1,-5.502485633E-1,-4.132814407E-1,1.021144349E0
1.427368541E1,-7.162497640E-1,-5.524666309E-1,-4.988412857E-1,1.032993577E0
1.429160234E1,-6.765156984E-1,-5.318861008E-1,-4.989347458E-1,9.947422757E-1
1.430952592E1,-6.441621780E-1,-5.129109025E-1,-4.513473511E-1,9.390084860E-1
1.432744237E1,-6.646903157E-1,-5.331469178E-1,-4.227981567E-1,9.512187620E-1
1.434535167E1,-6.821222305E-1,-5.253619552E-1,-3.985767365E-1,9.487672719E-1
1.436327513E1,-6.933652163E-1,-5.339556336E-1,-3.895511627E-1,9.579217349E-1
1.438120372E1,-6.623566151E-1,-5.239694715E-1,-3.950977325E-1,9.323961126E-1
1.439911815E1,-6.795889139E-1,-5.369229913E-1,-3.624162674E-1,9.388679041E-1
1.441703740E1,-6.710293293E-1,-5.058227777E-1,-3.822526932E-1,9.231761288E-1
1.443494365E1,-6.304795146E-1,-4.917059541E-1,-4.401588440E-1,9.126987299E-1
1.445287480E1,-8.460239172E-1,-4.936428666E-1,-3.918619156E-1,1.054986023E0
1.447079368E1,-8.153952956E-1,-2.820866704E-1,-3.581352234E-1,9.341858573E-1
1.448871324E1,-6.454451680E-1,-3.132132888E-1,-3.737258911E-1,8.089332920E-1
1.450663133E1,-5.928964019E-1,-4.294037223E-1,-2.317695618E-1,7.678742279E-1
1.452455064E1,-5.884305239E-1,-4.276729226E-1,-3.037300110E-1,7.882934287E-1
1.454246922E1,-5.249978900E-1,-4.689419866E-1,-2.420654297E-1,7.443957573E-1
1.456038872E1,-4.749293327E-1,-4.936386347E-1,-1.791620255E-1,7.080508485E-1
1.457829515E1,-4.930813313E-1,-4.596572518E-1,-3.072957993E-1,7.408405339E-1
1.459622264E1,-5.371611118E-1,-3.861283064E-1,-5.971508026E-1,8.911936996E-1
1.461414860E1,-6.045280099E-1,-4.505622387E-1,-5.630817413E-1,9.410215157E-1
1.463206425E1,-5.448715091E-1,-4.916766882E-1,-5.576524734E-1,9.217413999E-1
1.464998265E1,-5.501945019E-1,-5.066657662E-1,-4.756317139E-1,8.863688373E-1
1.466790166E1,-6.320281625E-1,-5.009981394E-1,-4.692592621E-1,9.330932370E-1
1.468582060E1,-6.420696974E-1,-5.281694531E-1,-4.209480286E-1,9.318871768E-1
1.470373985E1,-6.419456005E-1,-5.082654357E-1,-5.054702759E-1,9.622515819E-1
1.472165843E1,-6.439718008E-1,-5.021798015E-1,-5.285205841E-1,9.727374985E-1
1.473957762E1,-6.878765821E-1,-4.881230593E-1,-5.515422821E-1,1.007788273E0
1.475748918E1,-6.971862316E-1,-4.900081158E-1,-5.171031952E-1,9.967809737E-1
1.477541276E1,-7.116864920E-1,-4.706589580E-1,-4.870243073E-1,9.824511150E-1
1.479333720E1,-6.771194339E-1,-4.714730382E-1,-5.573997498E-1,9.957268875E-1
1.481125328E1,-6.925140619E-1,-4.583705664E-1,-5.992517471E-1,1.024100561E0
1.482917210E1,-6.913439631E-1,-4.488308430E-1,-6.790523529E-1,1.067950232E0
1.484709141E1,-6.547554135E-1,-4.203871489E-1,-7.160434723E-1,1.057425298E0
1.486500951E1,-6.142681837E-1,-4.397850633E-1,-6.730928421E-1,1.011825221E0
1.488292894E1,-6.607489586E-1,-4.521505237E-1,-6.967258453E-1,1.061346402E0
1.490084770E1,-6.515344381E-1,-4.584732652E-1,-6.632661819E-1,1.036637298E0
1.491876671E1,-6.739276648E-1,-4.687957168E-1,-7.018346786E-1,1.080055479E0
1.493668535E1,-6.720473766E-1,-5.022448301E-1,-6.878223419E-1,1.084894981E0
1.495460442E1,-6.554745436E-1,-5.070186853E-1,-6.734695435E-1,1.067837090E0
1.497252348E1,-6.509706974E-1,-4.771569371E-1,-6.973762512E-1,1.066665471E0
1.499043889E1,-6.495897770E-1,-4.408442974E-1,-6.922607422E-1,1.046678321E0
1.500835814E1,-6.742486954E-1,-4.342660308E-1,-6.782579422E-1,1.050348573E0
1.502627977E1,-6.853887439E-1,-4.348644614E-1,-6.690073013E-1,1.051872425E0
1.504420226E1,-6.399155855E-1,-4.420914054E-1,-6.503438950E-1,1.013846117E0
1.506211821E1,-6.327837706E-1,-4.793461561E-1,-6.174650192E-1,1.005709246E0
1.508002251E1,-5.748716593E-1,-4.676601291E-1,-6.466875076E-1,9.835589222E-1
1.509795317E1,-5.398835540E-1,-4.510409832E-1,-7.043514252E-1,9.955014568E-1
1.511587718E1,-5.297433138E-1,-4.886971712E-1,-8.049745560E-1,1.080479958E0
1.513379399E1,-5.577173233E-1,-4.740608335E-1,-8.485927582E-1,1.120665854E0
1.515171251E1,-6.271207929E-1,-4.750230908E-1,-7.535676956E-1,1.089399696E0
1.516961961E1,-5.996332169E-1,-4.614436030E-1,-7.299842834E-1,1.051364469E0
1.518754735E1,-6.345622540E-1,-4.349737167E-1,-7.487487793E-1,1.073543722E0
1.520547246E1,-6.107147336E-1,-4.221867323E-1,-7.252197266E-1,1.037862117E0
1.522338817E1,-6.707395911E-1,-4.239120483E-1,-5.917940140E-1,9.898551302E-1
1.524130705E1,-6.392119527E-1,-4.408524036E-1,-5.545816422E-1,9.542031021E-1
1.525922612E1,-5.883854628E-1,-4.796581268E-1,-5.164394379E-1,9.181389135E-1
1.527714525E1,-5.984235406E-1,-4.635948539E-1,-5.594253540E-1,9.412691694E-1
1.529506370E1,-6.135880947E-1,-4.301925898E-1,-6.542024612E-1,9.947546806E-1
1.531298717E1,-6.103923321E-1,-3.867540359E-1,-7.298040390E-1,1.027020652E0
1.533089867E1,-6.461064816E-1,-3.920177221E-1,-7.005977631E-1,1.030518659E0
1.534882353E1,-6.043821573E-1,-3.739678264E-1,-7.192277908E-1,1.011147043E0
1.536673930E1,-5.702079535E-1,-3.596401215E-1,-7.811584473E-1,1.031836541E0
1.538465849E1,-5.632978678E-1,-4.172295332E-1,-7.475242615E-1,1.024781681E0
1.540256450E1,-5.597331524E-1,-4.497827888E-1,-7.287235260E-1,1.023056077E0
1.542049632E1,-5.756644011E-1,-4.423003793E-1,-6.948480606E-1,1.004904451E0
1.543841484E1,-5.661661029E-1,-4.605027437E-1,-6.755018234E-1,9.944393126E-1
1.545633427E1,-5.914523602E-1,-4.290439487E-1,-6.610851288E-1,9.853568652E-1
1.547425304E1,-5.906155109E-1,-3.935781121E-1,-6.939697266E-1,9.926350757E-1
1.549216753E1,-6.241748333E-1,-3.894459605E-1,-7.130250931E-1,1.024532655E0
1.551008732E1,-6.248418689E-1,-3.356761336E-1,-7.313776016E-1,1.018832186E0
1.552801280E1,-6.463700533E-1,-3.264609575E-1,-7.982358932E-1,1.077753007E0
1.554592870E1,-6.660157442E-1,-3.785487413E-1,-7.647514343E-1,1.082460566E0
1.556384782E1,-5.970162749E-1,-3.810571432E-1,-7.415399551E-1,1.025433803E0
1.558176610E1,-5.684439540E-1,-3.905204535E-1,-7.753572464E-1,1.037696301E0
1.559968529E1,-5.315366983E-1,-3.643258810E-1,-8.093347549E-1,1.034546932E0
1.561760429E1,-5.595716238E-1,-3.621140718E-1,-8.380889893E-1,1.070812849E0
1.563552354E1,-5.776962042E-1,-3.677786589E-1,-8.246107101E-1,1.071903386E0
1.565344163E1,-5.735923648E-1,-4.052048922E-1,-7.783813477E-1,1.048368603E0
1.567136095E1,-5.732344389E-1,-4.110592604E-1,-7.412118912E-1,1.023211857E0
1.568928001E1,-6.115669012E-1,-4.402979612E-1,-6.472864151E-1,9.934062978E-1
1.570719902E1,-6.316637993E-1,-4.225134254E-1,-6.715965271E-1,1.014178803E0
1.572511253E1,-5.975216627E-1,-4.113438725E-1,-7.534561157E-1,1.045912060E0
1.574303660E1,-6.024188995E-1,-3.969411254E-1,-8.207492828E-1,1.092748907E0
1.576095573E1,-5.745626688E-1,-3.712188005E-1,-8.068504333E-1,1.057796427E0
1.577887505E1,-5.805706978E-1,-3.724251986E-1,-7.022123337E-1,9.843094154E-1
1.585055223E1,-5.941938758E-1,-4.190244079E-1,-7.872943878E-1,1.071671717E0
1.586846873E1,-6.095124483E-1,-4.066235423E-1,-7.882213593E-1,1.076169615E0
1.588638804E1,-6.008952260E-1,-4.102426767E-1,-7.367610931E-1,1.035466578E0
1.590429570E1,-5.913764238E-1,-4.090585709E-1,-6.375341415E-1,9.609915560E-1
1.592222606E1,-5.848760605E-1,-3.870828748E-1,-6.056385040E-1,9.266666907E-1
1.594014452E1,-5.885460377E-1,-3.501503468E-1,-6.342287064E-1,9.334011762E-1
1.595806377E1,-5.610119104E-1,-3.101051450E-1,-6.821832657E-1,9.360948523E-1
1.597598277E1,-5.296264291E-1,-3.081979156E-1,-7.205524445E-1,9.458783932E-1
1.599389793E1,-5.134122968E-1,-3.096435666E-1,-6.734895706E-1,9.016981349E-1
1.601182353E1,-4.939082265E-1,-3.298692703E-1,-5.829763412E-1,8.322382388E-1
1.602973924E1,-4.772469401E-1,-3.433680534E-1,-5.598964691E-1,8.118807290E-1
1.604765587E1,-4.952837229E-1,-3.307379484E-1,-6.213846207E-1,8.607045971E-1
1.606557719E1,-5.103935599E-1,-3.363080025E-1,-6.691398621E-1,9.062851723E-1
1.608349571E1,-5.166282654E-1,-3.440753222E-1,-6.788253784E-1,9.198350321E-1
1.610141478E1,-5.427454710E-1,-3.771669865E-1,-6.739730835E-1,9.439636112E-1
1.611933379E1,-5.954072475E-1,-3.596380353E-1,-6.782541275E-1,9.715338225E-1
1.613725273E1,-5.963567495E-1,-3.723239303E-1,-7.151985168E-1,1.002883543E0
1.615516814E1,-5.459629893E-1,-4.071494937E-1,-7.247123718E-1,9.945121004E-1
1.617309337E1,-5.283499956E-1,-4.079650044E-1,-7.241878510E-1,9.849046686E-1
1.619100926E1,-5.360893607E-1,-4.077175260E-1,-7.623004913E-1,1.017215524E0
1.620892888E1,-5.361679792E-1,-4.019373059E-1,-7.863388062E-1,1.033130397E0
1.622683562E1,-5.546371937E-1,-4.004285932E-1,-7.769880295E-1,1.035217790E0
1.624476616E1,-5.351648331E-1,-3.892124891E-1,-7.915592194E-1,1.031723683E0
1.626268535E1,-5.012534857E-1,-3.925915956E-1,-7.869634628E-1,1.012272053E0
1.628060429E1,-5.045796037E-1,-3.715914488E-1,-8.015670776E-1,1.017443149E0
1.629852251E1,-5.074239373E-1,-3.600870967E-1,-8.354625702E-1,1.041700281E0
1.631644194E1,-4.916905165E-1,-3.525890708E-1,-8.310823441E-1,1.027996342E0
1.633436058E1,-4.728987813E-1,-3.394343257E-1,-7.692165375E-1,9.646465676E-1
1.635227959E1,-4.638958573E-1,-3.549808860E-1,-6.649723053E-1,8.850982785E-1
1.637019804E1,-4.618749321E-1,-3.658454418E-1,-5.984678268E-1,8.398422947E-1
1.638811723E1,-4.633039236E-1,-3.775885701E-1,-6.277065277E-1,8.667405257E-1
1.640603618E1,-4.715529680E-1,-3.797587752E-1,-6.759901047E-1,9.074919011E-1
1.642395280E1,-4.965162873E-1,-3.673645258E-1,-6.899976730E-1,9.260571835E-1
1.644187688E1,-5.136935711E-1,-3.594012260E-1,-6.901664734E-1,9.324055380E-1
1.645979295E1,-5.376888514E-1,-3.515121937E-1,-6.713285446E-1,9.291674435E-1
1.647771165E1,-5.351192951E-1,-3.444596529E-1,-6.717567444E-1,9.253443878E-1
1.649563121E1,-5.342900753E-1,-3.672361374E-1,-6.771154404E-1,9.374505772E-1
1.651354930E1,-5.288636684E-1,-3.692166209E-1,-6.921472549E-1,9.460895917E-1
1.653146886E1,-5.213236213E-1,-3.654686809E-1,-6.879625320E-1,9.373569866E-1
1.654938530E1,-5.380070210E-1,-3.838968277E-1,-6.695928574E-1,9.408416039E-1
1.656730400E1,-5.032827258E-1,-3.776478767E-1,-5.943908691E-1,8.655702896E-1
1.658522801E1,-5.254308581E-1,-3.814612627E-1,-5.281667709E-1,8.369889005E-1
1.660314458E1,-5.314407945E-1,-3.309607506E-1,-5.291442871E-1,8.197304514E-1
1.662106309E1,-5.235243440E-1,-3.348892331E-1,-5.491409302E-1,8.293276182E-1
1.663897075E1,-5.408852696E-1,-3.001934290E-1,-5.540895462E-1,8.304746805E-1
1.665690086E1,-5.207219124E-1,-2.927813530E-1,-5.262346268E-1,7.961125003E-1
1.667481981E1,-5.128029585E-1,-3.170055151E-1,-4.605398178E-1,7.586542655E-1
1.669273888E1,-4.955614805E-1,-3.182942271E-1,-5.041027069E-1,7.752495954E-1
1.671065782E1,-4.651255310E-1,-3.302159905E-1,-5.242099762E-1,7.747131463E-1
1.672857646E1,-4.738061428E-1,-3.309355974E-1,-5.055532455E-1,7.678507112E-1
1.674649577E1,-4.746868610E-1,-3.208228946E-1,-4.630479813E-1,7.366602872E-1
1.676441460E1,-5.090469122E-1,-3.293334246E-1,-3.822097778E-1,7.167102466E-1
1.678233305E1,-5.328643322E-1,-3.116855025E-1,-3.730487823E-1,7.212888763E-1
1.680023741E1,-5.408829451E-1,-3.095621467E-1,-4.116287231E-1,7.468743459E-1
1.681817399E1,-5.328186750E-1,-3.145053983E-1,-4.501056671E-1,7.651173097E-1
1.683609044E1,-5.246653557E-1,-3.144175410E-1,-5.125408173E-1,7.980164252E-1
1.685401427E1,-5.466343760E-1,-3.364560604E-1,-5.320014954E-1,8.336890384E-1
1.687192741E1,-5.138400793E-1,-3.858056664E-1,-4.658575058E-1,7.936629354E-1
1.688984398E1,-4.915142655E-1,-4.205041528E-1,-3.561172485E-1,7.383965807E-1
1.690776860E1,-4.687592387E-1,-4.326274395E-1,-2.611198425E-1,6.892643161E-1
1.692568492E1,-4.669275284E-1,-4.282370210E-1,-2.468376160E-1,6.799537275E-1
1.694360307E1,-4.617762566E-1,-4.306480289E-1,-3.229236603E-1,7.092071110E-1
1.696150566E1,-4.950678945E-1,-4.145445228E-1,-4.473485947E-1,7.855317604E-1
1.697943938E1,-5.126633048E-1,-3.992704749E-1,-5.234851837E-1,8.344323303E-1
1.699736272E1,-5.523459315E-1,-3.854715824E-1,-5.137252808E-1,8.471056800E-1
1.701527904E1,-5.624124408E-1,-3.920505643E-1,-4.235229492E-1,8.058430908E-1
1.703319804E1,-5.442168713E-1,-3.990968466E-1,-3.245620728E-1,7.488596898E-1
1.705111699E1,-5.588600039E-1,-3.908830285E-1,-2.965288162E-1,7.436688677E-1
1.706903612E1,-5.576854944E-1,-3.536024690E-1,-3.591690063E-1,7.516982053E-1
1.708695445E1,-5.256261230E-1,-3.486237526E-1,-3.691492081E-1,7.308163106E-1
1.710487352E1,-4.832042158E-1,-3.432850242E-1,-3.169965744E-1,6.721738987E-1
1.712279277E1,-3.873333037E-1,-3.346515298E-1,-2.844266891E-1,5.855913900E-1
1.714071172E1,-3.471196890E-1,-3.279140592E-1,-2.805490494E-1,5.538298275E-1
1.715863017E1,-3.270518780E-1,-3.349269629E-1,-3.095712662E-1,5.612248838E-1
1.717654960E1,-3.115926981E-1,-3.632755876E-1,-2.628831863E-1,5.460464556E-1
1.719446800E1,-3.157379031E-1,-3.513813019E-1,-2.301139832E-1,5.254633080E-1
1.721238457E1,-3.488121629E-1,-3.504516482E-1,-1.391878128E-1,5.136725902E-1
1.723030858E1,-3.720600605E-1,-3.027609587E-1,-1.492433548E-1,5.023608919E-1
1.724822496E1,-3.868814707E-1,-2.561881542E-1,-1.824293137E-1,4.985881037E-1
1.726614061E1,-3.914843798E-1,-2.444520593E-1,-2.065753937E-1,5.056582069E-1
1.728405901E1,-3.708891869E-1,-2.613845468E-1,-1.877298355E-1,4.910429323E-1
1.730197691E1,-3.588050604E-1,-2.589168549E-1,-1.594028473E-1,4.703065775E-1
1.731990520E1,-3.929884732E-1,-2.760278583E-1,-1.120052338E-1,4.931292842E-1
1.733781938E1,-4.373779595E-1,-2.600330114E-1,-8.365249634E-2,5.156688730E-1
1.735573833E1,-4.578798711E-1,-2.502701283E-1,-1.125879288E-1,5.338212764E-1
1.737365690E1,-4.525406063E-1,-2.711512446E-1,-1.223649979E-1,5.415618067E-1
1.739157603E1,-4.855757356E-1,-2.825556993E-1,-1.033544540E-1,5.712299549E-1
1.740949510E1,-5.012960434E-1,-2.838504314E-1,-1.076173782E-1,5.860463213E-1
1.742741417E1,-5.007393360E-1,-2.979203463E-1,-1.417741776E-1,5.996635163E-1
1.744533269E1,-4.693578780E-1,-3.010858893E-1,-1.370191574E-1,5.742157956E-1
1.746325182E1,-4.143971205E-1,-3.141585588E-1,-9.931182861E-2,5.294179945E-1
1.748117088E1,-4.092144370E-1,-3.385504484E-1,-3.704261780E-2,5.323955457E-1
1.749909001E1,-3.966881633E-1,-3.494396210E-1,-1.794719696E-2,5.289533528E-1
1.751700822E1,-4.026584625E-1,-3.312635422E-1,-7.073879242E-2,5.261875603E-1
1.753491557E1,-4.367630184E-1,-3.208631277E-1,-1.231002808E-1,5.557596244E-1
1.755284648E1,-4.492057562E-1,-3.054707646E-1,-1.615924835E-1,5.667542061E-1
1.757076549E1,-4.758520722E-1,-2.978826165E-1,-1.332588196E-1,5.769984063E-1
1.758868376E1,-4.908803105E-1,-2.946045399E-1,-7.155227661E-2,5.769532411E-1
1.760659135E1,-4.917357862E-1,-2.818290591E-1,-5.292892456E-2,5.692391176E-1
1.762451939E1,-5.133222938E-1,-2.797634602E-1,-3.356647491E-2,5.855715833E-1
1.764244389E1,-5.231359005E-1,-2.932890654E-1,-1.927375793E-2,6.000509345E-1
1.766035936E1,-5.142917037E-1,-2.693087459E-1,-4.795265198E-2,5.825140461E-1
1.767827867E1,-4.854208231E-1,-2.730921507E-1,-5.278491974E-2,5.594630873E-1
1.769619505E1,-4.606513977E-1,-2.671710849E-1,-7.207870483E-2,5.373783011E-1
1.771411406E1,-4.550664425E-1,-2.792223692E-1,-5.379295349E-2,5.366043984E-1
1.773203789E1,-4.541026354E-1,-2.815313935E-1,-4.450511932E-2,5.361434833E-1
1.774995408E1,-4.275154471E-1,-2.705926895E-1,-3.042125702E-2,5.068681427E-1
1.776787334E1,-4.247006178E-1,-2.457638383E-1,-7.794857025E-2,4.968364505E-1
1.778579228E1,-4.230775833E-1,-2.337202430E-1,-9.321975708E-2,4.922496486E-1
1.780371098E1,-4.092034101E-1,-2.485274076E-1,-6.487751007E-2,4.831380699E-1
1.782162975E1,-4.048295021E-1,-2.632573843E-1,-1.258277893E-2,4.830628349E-1
1.783954875E1,-3.961920738E-1,-2.748444676E-1,5.361652374E-2,4.851622124E-1
1.785746806E1,-3.771945238E-1,-2.645713091E-1,2.065944672E-2,4.611946434E-1
1.787538646E1,-3.809533715E-1,-2.496252060E-1,-2.730655670E-2,4.562716984E-1
1.789330553E1,-4.019139409E-1,-2.487285733E-1,-1.319217682E-2,4.728369197E-1
1.791122417E1,-4.311258793E-1,-2.430155277E-1,-3.265094757E-2,4.959759620E-1
1.792914555E1,-4.715786874E-1,-2.381905317E-1,-4.655456543E-2,5.303663973E-1
1.794706236E1,-4.745781720E-1,-2.476473451E-1,-5.623149872E-2,5.382523853E-1
1.796498088E1,-4.570321441E-1,-2.717038989E-1,-3.311347961E-2,5.327268455E-1
1.798289995E1,-4.630490243E-1,-2.718368173E-1,-2.371788025E-2,5.374683172E-1
1.800081920E1,-4.517908096E-1,-2.815960050E-1,-5.250453949E-2,5.349467005E-1
1.801872917E1,-4.281930327E-1,-3.047549129E-1,-4.777050018E-2,5.277374829E-1
1.803665471E1,-4.012858868E-1,-2.838209867E-1,-2.864074707E-2,4.923464307E-1
1.805456273E1,-3.682463467E-1,-2.883320451E-1,-2.923870087E-2,4.686103304E-1
1.807249467E1,-3.509360552E-1,-2.885544300E-1,-3.834819794E-2,4.559499514E-1
1.809041136E1,-3.746887445E-1,-2.835449576E-1,-6.734085083E-2,4.746832507E-1
1.810833446E1,-4.087377489E-1,-2.539100051E-1,-1.005754471E-1,4.915813855E-1
1.812625133E1,-4.300878942E-1,-2.473393679E-1,-1.200113297E-1,5.104459608E-1
1.814417027E1,-4.482851923E-1,-2.305980921E-1,-1.011009216E-1,5.141560950E-1
1.816208855E1,-4.431712031E-1,-2.608754039E-1,-2.548694611E-2,5.148847211E-1
1.818000804E1,-4.360413551E-1,-2.573505640E-1,7.577896118E-3,5.063781203E-1
1.819792705E1,-4.355230331E-1,-2.804523110E-1,7.236480713E-3,5.180600137E-1
1.821584630E1,-4.252927899E-1,-2.920366526E-1,-4.549980164E-2,5.179088680E-1
1.823376420E1,-4.402883649E-1,-2.875815034E-1,-1.126747131E-1,5.378220489E-1
1.825167162E1,-4.092268050E-1,-2.987154126E-1,-9.393501282E-2,5.152875530E-1
1.826959959E1,-3.850876689E-1,-3.086631894E-1,-3.750514984E-2,4.949465764E-1
1.828752482E1,-3.729054332E-1,-3.242527843E-1,6.736755371E-2,4.987351176E-1
1.830543992E1,-3.833431005E-1,-3.041590452E-1,5.811977386E-2,4.927905900E-1
1.832335893E1,-4.018539190E-1,-2.617567182E-1,-2.346801758E-2,4.801602853E-1
1.834126707E1,-3.976651728E-1,-2.176415920E-1,-1.379938126E-1,4.738646901E-1
1.835919511E1,-4.136717021E-1,-2.155830860E-1,-1.143932343E-1,4.802979869E-1
1.837711845E1,-4.108009636E-1,-2.176363468E-1,-5.731105804E-2,4.684096162E-1
1.839503471E1,-4.169178605E-1,-2.355925441E-1,8.772850037E-3,4.789585704E-1
1.841295390E1,-4.157009721E-1,-2.544578314E-1,2.282810211E-2,4.879315612E-1
1.843086107E1,-4.293324947E-1,-2.692840099E-1,8.287429810E-3,5.068618653E-1
1.844879155E1,-4.180567265E-1,-2.835355401E-1,-2.053928375E-2,5.055548350E-1
1.846671049E1,-4.066785276E-1,-3.058071136E-1,-1.595306396E-2,5.090775145E-1
1.848462920E1,-3.929497004E-1,-2.895245552E-1,-6.547927856E-3,4.881360573E-1
1.850254863E1,-3.842818141E-1,-3.074196577E-1,-1.678371429E-2,4.924033425E-1
1.852046678E1,-3.514358401E-1,-2.921002507E-1,-2.641010284E-2,4.577414114E-1
1.853838628E1,-3.800512552E-1,-2.521917820E-1,-3.552818298E-2,4.574952495E-1
1.855630473E1,-3.853350878E-1,-2.411108017E-1,-7.136344910E-3,4.546080465E-1
1.857422423E1,-3.888892233E-1,-2.427251935E-1,-7.265090942E-3,4.584791480E-1
1.859214012E1,-3.726810515E-1,-2.221715450E-1,-7.361221313E-2,4.400796740E-1
1.861006383E1,-3.812523186E-1,-2.147604823E-1,-1.167449951E-1,4.528849623E-1
1.862798021E1,-3.940992951E-1,-2.239059210E-1,-1.072750092E-1,4.657854050E-1
1.864589946E1,-4.099987149E-1,-2.610962987E-1,-6.009864807E-2,4.897775729E-1
1.866381779E1,-3.803474605E-1,-2.449820638E-1,-3.615760803E-2,4.538587610E-1
1.868173454E1,-3.424211144E-1,-2.507411242E-1,1.638031006E-2,4.247253766E-1
1.869965922E1,-3.487045467E-1,-2.236039639E-1,1.067380905E-1,4.277693461E-1
1.871757518E1,-3.608489633E-1,-2.063401341E-1,7.867431641E-2,4.230577659E-1
1.873549364E1,-3.523772061E-1,-2.446113229E-1,7.834243774E-2,4.360526714E-1
1.875340086E1,-3.593584001E-1,-2.757959962E-1,8.759975433E-2,4.613844473E-1
1.877132988E1,-3.789382875E-1,-2.884291410E-1,3.980827332E-2,4.778810456E-1
1.878925304E1,-3.869859576E-1,-2.699965239E-1,-5.074310303E-2,4.745852050E-1
1.880716923E1,-3.920005262E-1,-2.596665025E-1,-7.910156250E-2,4.768104049E-1
1.882508861E1,-4.146017432E-1,-2.522088885E-1,-7.897853851E-2,4.916721860E-1
1.884300731E1,-4.135949612E-1,-2.363451719E-1,-7.335472107E-2,4.819758783E-1
1.886092638E1,-3.943588138E-1,-2.418467999E-1,-1.206846237E-1,4.780936383E-1
1.887884477E1,-3.889788091E-1,-2.510347366E-1,-1.729946136E-1,4.942166421E-1
1.889676420E1,-3.541226983E-1,-2.476651669E-1,-1.442165375E-1,4.555648472E-1
1.891468309E1,-3.274380565E-1,-2.765411735E-1,-9.703826904E-2,4.394395602E-1
1.893260222E1,-3.281070590E-1,-2.971793413E-1,-3.492546082E-2,4.440603460E-1
1.895052019E1,-3.611946702E-1,-3.032597303E-1,3.250122070E-3,4.716339864E-1
1.896843950E1,-3.797516227E-1,-2.804816961E-1,-1.123237610E-2,4.722366388E-1
1.898635844E1,-3.845301270E-1,-2.816879153E-1,-3.046989441E-2,4.776399425E-1
1.900427324E1,-3.782770932E-1,-2.639008164E-1,-3.998279572E-2,4.629641715E-1
1.902220073E1,-3.637985885E-1,-2.592465281E-1,-4.954814911E-2,4.494587795E-1
1.904011497E1,-3.378443122E-1,-2.442048192E-1,-1.140689850E-2,4.170190527E-1
1.905803416E1,-3.284131289E-1,-2.311278582E-1,1.244354248E-2,4.017836629E-1
1.907594054E1,-3.221653998E-1,-2.289242744E-1,-1.564407349E-2,3.955269969E-1
1.909387034E1,-3.278550208E-1,-2.270965576E-1,-7.296276093E-2,4.054446024E-1
1.911179210E1,-3.458137214E-1,-2.089673877E-1,-8.249092102E-2,4.123824088E-1
1.912970995E1,-3.506979048E-1,-2.143561244E-1,-4.893493652E-2,4.139229355E-1
1.914762895E1,-3.450248539E-1,-2.267443538E-1,-2.005672455E-2,4.133490341E-1
1.916554741E1,-3.670690358E-1,-2.341713309E-1,-3.903675079E-2,4.371495821E-1
1.918346605E1,-3.792052567E-1,-2.494469881E-1,-5.818367004E-2,4.576087478E-1
1.920138512E1,-3.795216382E-1,-2.783278823E-1,-4.918384552E-2,4.732041151E-1
1.921930473E1,-3.913559914E-1,-2.825408578E-1,-4.376125336E-2,4.846688515E-1
1.923722288E1,-4.086314142E-1,-2.817741036E-1,-2.457237244E-2,4.969709042E-1
1.925514220E1,-4.281414449E-1,-2.823342681E-1,-5.395889282E-3,5.128809330E-1
1.927306053E1,-4.002176821E-1,-2.587878108E-1,-5.315589905E-2,4.795527851E-1
1.929098003E1,-3.649705648E-1,-2.700127363E-1,-8.178997040E-2,4.613024932E-1
1.930889763E1,-3.127475977E-1,-2.610318661E-1,-9.621334076E-2,4.185758019E-1
1.932681767E1,-3.119481504E-1,-2.476482987E-1,-9.155654907E-2,4.086856128E-1
1.934473674E1,-3.336947858E-1,-2.383790016E-1,-1.299219131E-1,4.301818941E-1
1.936265550E1,-3.214279413E-1,-2.361602187E-1,-1.252555847E-1,4.180628324E-1
1.938057396E1,-2.877407074E-1,-2.279450297E-1,-6.314945221E-2,3.724802070E-1
1.939847734E1,-2.534263134E-1,-2.304676771E-1,1.277732849E-2,3.427878449E-1
1.941640916E1,-2.730431855E-1,-2.401478887E-1,5.587577820E-2,3.678935881E-1
1.943433391E1,-2.940720916E-1,-2.367445230E-1,3.195667267E-2,3.788767519E-1
1.945224944E1,-3.092198074E-1,-2.277862430E-1,-2.975940704E-2,3.852130373E-1
1.947016875E1,-3.452339768E-1,-2.033693194E-1,-4.903507233E-2,4.036706791E-1
1.948807603E1,-3.652760684E-1,-2.080802321E-1,-4.427337646E-2,4.227104459E-1
1.950600664E1,-3.819758296E-1,-2.118215561E-1,-1.077651978E-2,4.369096467E-1
1.952392503E1,-3.830317855E-1,-2.112109661E-1,1.792430878E-2,4.377724315E-1
1.954184422E1,-3.745748401E-1,-1.976338625E-1,-1.291275024E-3,4.235175579E-1
1.955976323E1,-3.693429530E-1,-2.104499340E-1,-4.905891418E-2,4.279137398E-1
1.957768230E1,-3.755289316E-1,-2.127232552E-1,-7.709884644E-2,4.384260415E-1
1.959560051E1,-3.466044962E-1,-1.976763606E-1,-7.232952118E-2,4.055147100E-1
1.961351988E1,-3.042277098E-1,-1.772898436E-1,-2.994251251E-2,3.533875239E-1
1.963142692E1,-2.849671841E-1,-1.723465323E-1,-1.247406006E-3,3.330333005E-1
1.964935503E1,-2.786233127E-1,-1.879931092E-1,8.381843567E-3,3.362181060E-1
1.966727934E1,-2.815705240E-1,-1.662257314E-1,-5.850791931E-3,3.270278054E-1
1.968519536E1,-3.045983911E-1,-1.540922523E-1,-6.253528595E-2,3.470378424E-1
1.970311424E1,-3.216316402E-1,-1.466211081E-1,-7.677936554E-2,3.617177522E-1
1.972101543E1,-3.493098319E-1,-1.484823823E-1,-7.664871216E-2,3.872200945E-1
1.973895164E1,-3.431154788E-1,-1.830330491E-1,-7.179737091E-2,3.954544111E-1
1.975687096E1,-3.375665843E-1,-1.987470984E-1,-5.794334412E-2,3.959912109E-1
1.977477422E1,-3.547925055E-1,-2.291214466E-1,-7.227420807E-2,4.284832790E-1
1.979270872E1,-3.329026997E-1,-2.293009162E-1,-7.708930969E-2,4.115165602E-1
1.981063145E1,-3.266267776E-1,-2.241302133E-1,-1.202697754E-1,4.139857766E-1
1.982854344E1,-3.165771663E-1,-2.214640975E-1,-1.205320358E-1,4.047164691E-1
1.984646806E1,-3.092738986E-1,-2.037538290E-1,-1.303253174E-1,3.926202434E-1
1.986438487E1,-2.823508382E-1,-1.941937804E-1,-6.847858429E-2,3.494603507E-1
1.988230290E1,-2.778894901E-1,-1.900438070E-1,-2.574729919E-2,3.376420305E-1
1.990022227E1,-2.839017808E-1,-1.818869710E-1,-6.862640381E-3,3.372390654E-1
1.991814085E1,-2.839960456E-1,-1.305823922E-1,2.693080902E-2,3.137368062E-1
1.993606029E1,-3.155561686E-1,-1.414450407E-1,-2.164840698E-3,3.458136515E-1
1.995397826E1,-3.281978071E-1,-1.109239459E-1,-2.633857727E-2,3.474358113E-1
1.997188737E1,-3.141008615E-1,-1.157922745E-1,-7.417774200E-2,3.428841487E-1
1.998981956E1,-2.914367020E-1,-1.440710425E-1,-2.150630951E-2,3.258133483E-1
2.000773564E1,-2.834290266E-1,-1.668331027E-1,3.049087524E-2,3.302953084E-1
2.002565404E1,-2.892102301E-1,-1.765758991E-1,4.011535645E-2,3.412196465E-1
2.004357298E1,-2.850652337E-1,-1.877678037E-1,-6.023788452E-2,3.466230493E-1
2.006149321E1,-2.795223594E-1,-2.065191269E-1,-9.858703613E-2,3.612510247E-1
2.007941002E1,-2.826943994E-1,-1.893168092E-1,-7.975387573E-2,3.494533708E-1
2.009732988E1,-2.885472178E-1,-1.928310394E-1,-5.126667023E-2,3.508155900E-1
2.011524876E1,-2.964353859E-1,-1.984882355E-1,-9.912967682E-2,3.702677551E-1
2.013316539E1,-2.778068781E-1,-1.885229945E-1,-8.478736877E-2,3.462751491E-1
2.015108305E1,-2.632810175E-1,-1.707656384E-1,-2.764415741E-2,3.150269780E-1
2.016900859E1,-2.431920171E-1,-1.635879278E-1,3.911113739E-2,2.956907986E-1
2.018692424E1,-2.450172156E-1,-1.692969799E-1,4.387187958E-2,3.010309704E-1
2.020484337E1,-2.595102489E-1,-1.480394006E-1,-4.640960693E-2,3.023492765E-1
2.022276225E1,-2.881968617E-1,-1.291112900E-1,-1.613616943E-1,3.546332651E-1
2.024068040E1,-3.430519700E-1,-1.183922291E-1,-1.849346161E-1,4.073109209E-1
2.025859984E1,-3.707194328E-1,-1.198608279E-1,-1.852617264E-1,4.314179218E-1
2.027651884E1,-3.961573541E-1,-1.458033919E-1,-1.001033783E-1,4.338432490E-1
2.029443803E1,-3.949360251E-1,-1.953837276E-1,-3.835964203E-2,4.422903199E-1
2.031235625E1,-3.998641372E-1,-2.069082260E-1,-1.502037048E-2,4.504752532E-1
2.033027244E1,-3.895259202E-1,-2.333053946E-1,-3.035545349E-2,4.550640649E-1
2.034819756E1,-3.777499199E-1,-2.346730828E-1,-5.945205688E-2,4.486658053E-1
2.036611363E1,-3.297689259E-1,-2.109255791E-1,-5.022811890E-2,3.946644250E-1
2.038403142E1,-2.869378626E-1,-1.863918304E-1,-4.110908508E-2,3.446232847E-1
2.040195079E1,-2.766109109E-1,-1.621069312E-1,1.107406616E-2,3.208035039E-1
2.041986986E1,-2.647234797E-1,-1.449798942E-1,5.981445312E-3,3.018832028E-1
2.043778911E1,-2.644583583E-1,-1.102593541E-1,-2.234363556E-2,2.873927391E-1
2.045571294E1,-2.679446340E-1,-8.654820919E-2,-6.560039520E-2,2.891164666E-1
2.047362498E1,-2.571803629E-1,-9.014838934E-2,-7.544994354E-2,2.827740532E-1
2.049154692E1,-2.618477941E-1,-1.125823855E-1,-8.702278137E-3,2.851574836E-1
2.050946464E1,-2.705434859E-1,-1.452808380E-1,2.405548096E-2,3.080242942E-1
2.052738310E1,-2.862478495E-1,-1.781061888E-1,7.669925690E-2,3.457490735E-1
2.054528740E1,-3.078399301E-1,-1.988360882E-1,5.771064758E-2,3.709875083E-1
2.056321782E1,-3.059515655E-1,-1.913940907E-1,-2.334880829E-2,3.616396345E-1
2.058114281E1,-2.929282486E-1,-1.940740943E-1,-1.283674240E-1,3.740987951E-1
2.059905833E1,-2.832939327E-1,-1.943777204E-1,-1.282930374E-1,3.667386725E-1
2.061697764E1,-2.932029068E-1,-2.141775489E-1,-7.563591003E-2,3.708918413E-1
2.063489653E1,-2.796324492E-1,-2.234798074E-1,-3.256511688E-2,3.594412577E-1
2.065281566E1,-2.929590642E-1,-2.278223634E-1,-3.900527954E-3,3.711377867E-1
2.067072801E1,-2.810573876E-1,-2.330226898E-1,2.477836609E-2,3.659327760E-1
2.068865318E1,-2.965618670E-1,-2.404085398E-1,1.053333282E-2,3.819111913E-1
2.070656883E1,-2.644922137E-1,-2.241197228E-1,-4.198169708E-2,3.492108878E-1
2.072449400E1,-2.527880073E-1,-1.962410212E-1,-8.977794647E-2,3.323738778E-1
2.074240965E1,-2.621200085E-1,-1.732441783E-1,-8.910751343E-2,3.265893340E-1
2.076032860E1,-2.310554236E-1,-1.508172750E-1,-7.457065582E-2,2.858202966E-1
2.077824174E1,-2.033212334E-1,-1.623857021E-1,-1.752471924E-2,2.607983052E-1
2.079616374E1,-1.933958828E-1,-1.603602767E-1,-2.941131592E-3,2.512489524E-1
2.081408781E1,-2.010282874E-1,-1.524330378E-1,-6.508636475E-2,2.605464224E-1
2.083200413E1,-2.313310504E-1,-1.636859179E-1,-7.398986816E-2,2.928850204E-1
2.084992345E1,-2.452821434E-1,-1.611649990E-1,-1.168937683E-1,3.159139754E-1
2.086783177E1,-2.308724821E-1,-1.673578620E-1,-1.359157562E-1,3.158858176E-1
2.088576030E1,-2.399755120E-1,-1.758333445E-1,-1.408090591E-1,3.291394880E-1
2.090368016E1,-2.785949707E-1,-1.919348836E-1,-1.410455704E-1,3.665351418E-1
2.092159868E1,-2.664876282E-1,-2.116662264E-1,-1.509132385E-1,3.722808791E-1
2.093951768E1,-2.498583943E-1,-2.255011797E-1,-1.327486038E-1,3.618040783E-1
2.095743602E1,-2.415484786E-1,-2.347700000E-1,-7.098197937E-2,3.442398318E-1
2.097535521E1,-2.443332374E-1,-2.480362058E-1,-2.427482605E-2,3.490128328E-1
2.099327422E1,-2.616229951E-1,-2.334625721E-1,-2.428436279E-2,3.514841311E-1
2.101119346E1,-2.915462852E-1,-2.196130753E-1,-4.880046844E-2,3.682534792E-1
2.102911150E1,-3.532673717E-1,-2.339490652E-1,-1.451034546E-1,4.478671829E-1
2.104703111E1,-2.992940545E-1,-1.158393621E-1,-6.572723389E-3,3.209967127E-1
2.106494969E1,-3.021289408E-1,-9.285920858E-2,-1.211957932E-1,3.385160997E-1
2.108286900E1,-2.813884318E-1,-1.289918423E-1,-1.170167923E-1,3.309248776E-1
2.110078709E1,-2.530624270E-1,-1.304840446E-1,-6.095314026E-2,2.911734246E-1
2.111869475E1,-2.375118881E-1,-1.770933270E-1,-4.722976685E-2,3.000076572E-1
2.113662535E1,-2.377874255E-1,-1.867320538E-1,-5.728721619E-2,3.077231626E-1
2.115454417E1,-2.505332232E-1,-1.945402622E-1,-7.219982147E-2,3.253085055E-1
2.117246300E1,-2.312769592E-1,-2.156291008E-1,3.143310547E-3,3.162195778E-1
2.119036650E1,-2.264255583E-1,-2.050848007E-1,7.926845551E-2,3.156133663E-1
2.120829796E1,-2.205675542E-1,-1.979015470E-1,9.819984436E-2,3.121830836E-1
2.122622258E1,-2.276177406E-1,-1.631630063E-1,5.975818634E-2,2.863617351E-1
2.124413823E1,-2.546445131E-1,-1.564375758E-1,1.231098175E-2,2.991121921E-1
2.126205717E1,-2.446853667E-1,-1.483014226E-1,-2.264976501E-3,2.861282418E-1
2.127996464E1,-2.655151784E-1,-1.614124775E-1,1.199245453E-2,3.109599923E-1
2.129789555E1,-2.734919488E-1,-1.901609302E-1,2.104568481E-2,3.337693010E-1
2.131581364E1,-2.687418461E-1,-2.011037469E-1,-1.222991943E-2,3.358786504E-1
2.133373271E1,-2.600484490E-1,-1.867988110E-1,-7.905101776E-2,3.298000228E-1
2.135165166E1,-2.310888767E-1,-1.917065382E-1,-7.892513275E-2,3.104555400E-1
2.136957103E1,-2.527849972E-1,-1.725513935E-1,-7.826137543E-2,3.159099256E-1
2.138748930E1,-2.765532136E-1,-1.831418872E-1,-7.340240479E-2,3.397212737E-1
2.140540855E1,-2.904912531E-1,-1.793500781E-1,-9.726619720E-2,3.549821570E-1
2.142332469E1,-2.763455510E-1,-1.881430745E-1,-9.731960297E-2,3.481892950E-1
2.144124492E1,-2.808821201E-1,-2.159207463E-1,-3.042888641E-2,3.555874734E-1
2.145916624E1,-2.483693957E-1,-2.104336619E-1,-7.125854492E-3,3.256078325E-1
2.147708397E1,-2.299443483E-1,-2.097280622E-1,-4.061412811E-2,3.138626623E-1
2.149500298E1,-2.100749910E-1,-2.184235454E-1,-7.421493530E-2,3.120067365E-1
2.151292174E1,-2.173544466E-1,-1.886500120E-1,-8.332824707E-2,2.996253982E-1
2.153084026E1,-2.401646376E-1,-2.019628286E-1,-5.950927734E-2,3.193890909E-1
2.154875932E1,-2.387774289E-1,-1.767473817E-1,-2.614307404E-2,2.982243414E-1
2.156667857E1,-2.518544495E-1,-1.665089130E-1,-2.621078491E-2,3.030559142E-1
2.158459721E1,-2.651068866E-1,-1.710917354E-1,-1.732635498E-2,3.159972244E-1
2.160250517E1,-2.649819553E-1,-1.806018353E-1,-3.647708893E-2,3.227429899E-1
2.162043211E1,-3.024995029E-1,-1.943473220E-1,-2.697086334E-2,3.605610327E-1
2.163835692E1,-3.191341460E-1,-1.888717413E-1,-5.520248413E-2,3.749219279E-1
2.165627306E1,-2.966281772E-1,-1.977667212E-1,-9.840774536E-2,3.698432585E-1
2.167419115E1,-2.901104093E-1,-2.163501382E-1,-1.032781601E-1,3.763479908E-1
2.169211064E1,-2.923897803E-1,-2.247885466E-1,-8.906841278E-2,3.794138327E-1
2.171002928E1,-2.738842964E-1,-2.186749578E-1,-9.405422211E-2,3.628740025E-1
2.172794859E1,-2.511426508E-1,-2.073008418E-1,-1.283416748E-1,3.500255070E-1
2.174586668E1,-2.143400908E-1,-2.044869065E-1,-1.047019958E-1,3.141959220E-1
2.176378593E1,-1.917008013E-1,-1.916326880E-1,-1.887130737E-2,2.717138395E-1
2.178170476E1,-1.791035831E-1,-1.765781641E-1,5.753421783E-2,2.580079994E-1
2.179962389E1,-1.986106187E-1,-1.731464267E-1,6.232070923E-2,2.707577030E-1
2.181754253E1,-2.276701033E-1,-1.460623145E-1,-8.796691895E-3,2.706386104E-1
2.183544945E1,-2.592918277E-1,-1.333513260E-1,-3.747463226E-2,2.939713865E-1
2.185337742E1,-2.602228224E-1,-1.278505325E-1,-5.602073669E-2,2.952964594E-1
2.187130211E1,-2.573066056E-1,-1.271619797E-1,-7.098579407E-2,2.956617008E-1
2.188921800E1,-2.954315841E-1,-1.370863914E-1,-5.185222626E-2,3.297895586E-1
2.190713676E1,-2.980989516E-1,-1.708951592E-1,-3.273296356E-2,3.451660286E-1
2.192504619E1,-3.175511658E-1,-1.716828346E-1,-4.712677002E-2,3.640531157E-1
2.194297105E1,-3.281715512E-1,-2.030348182E-1,-8.055305481E-2,3.942188467E-1
2.196089738E1,-3.071051240E-1,-2.039724588E-1,-1.522626877E-1,3.988762304E-1
2.197881254E1,-2.886038125E-1,-2.219808102E-1,-1.619052887E-1,3.984732904E-1
2.199673100E1,-2.378970534E-1,-1.883718371E-1,-1.382694244E-1,3.334627277E-1
2.201463902E1,-2.189415097E-1,-1.641435027E-1,-8.121395111E-2,2.854368232E-1
2.203256877E1,-1.979680359E-1,-1.370415688E-1,-2.405834198E-2,2.419721857E-1
2.205048515E1,-1.938200891E-1,-8.350878954E-2,-1.882362366E-2,2.118826885E-1
2.206840965E1,-2.179456204E-1,-7.867807150E-2,-1.891899109E-2,2.324832480E-1
2.208632579E1,-2.241430432E-1,-6.889057159E-2,-3.335857391E-2,2.368518717E-1
2.210424412E1,-2.062953711E-1,-9.668046236E-2,-5.365371704E-3,2.278896205E-1
2.212216356E1,-2.028437257E-1,-1.115065217E-1,1.370239258E-2,2.318772024E-1
2.214008238E1,-2.088497579E-1,-1.362987757E-1,-5.442619324E-3,2.494497940E-1
2.215800127E1,-2.484273463E-1,-1.416118145E-1,-1.982498169E-2,2.866410339E-1
2.217590813E1,-2.692015469E-1,-1.612480283E-1,-3.898811340E-2,3.162127013E-1
2.219383891E1,-2.617843151E-1,-1.619461179E-1,-6.769657135E-2,3.151831190E-1
2.221175786E1,-2.594656944E-1,-1.725803018E-1,-8.680057526E-2,3.234822205E-1
2.222967680E1,-2.484192252E-1,-1.693189740E-1,-1.058559418E-1,3.187263824E-1
2.224758574E1,-2.211221755E-1,-1.744770408E-1,-1.153869629E-1,3.043869338E-1
2.226551036E1,-2.203213423E-1,-1.534710526E-1,-1.107082367E-1,2.904327316E-1
2.228343742E1,-2.013128102E-1,-1.516833901E-1,-8.698940277E-2,2.666493101E-1
2.230135258E1,-2.142275274E-1,-1.516975164E-1,-3.448200226E-2,2.647538073E-1
2.231927049E1,-2.006710172E-1,-1.279036999E-1,-4.889106750E-2,2.429373377E-1
2.233718651E1,-2.419393361E-1,-1.772423983E-1,-1.045036316E-2,3.000978510E-1
2.235510606E1,-1.850669235E-1,-4.763728380E-2,4.795265198E-2,1.970241960E-1
2.237303081E1,-2.077849656E-1,-1.176542044E-1,4.272937775E-2,2.425755624E-1
2.239094597E1,-1.870580167E-1,-1.438490152E-1,5.244445801E-2,2.417305565E-1
2.240886534E1,-2.139861584E-1,-1.382925510E-1,4.859924316E-3,2.548303838E-1
2.242678441E1,-2.533255219E-1,-1.424449086E-1,-1.617202759E-1,3.325925731E-1
2.244470341E1,-2.319406867E-1,-1.170535088E-1,-3.094673157E-1,4.040643829E-1
2.246262187E1,-2.265936732E-1,-1.312930584E-1,-3.051033020E-1,4.020828084E-1
2.248054051E1,-2.351246178E-1,-1.691216230E-1,-1.578607559E-1,3.298571320E-1
2.249845317E1,-2.588441968E-1,-1.699664593E-1,-1.008596420E-1,3.256709734E-1
2.251638188E1,-2.755031288E-1,-1.807659864E-1,-1.155786514E-1,3.491944165E-1
2.253429692E1,-2.939550877E-1,-1.861382127E-1,-7.286834717E-2,3.554811160E-1
2.255221635E1,-2.351138294E-1,-1.665341854E-1,1.712417603E-2,2.886267227E-1
2.257011442E1,-2.081569433E-1,-1.382778883E-1,8.387947083E-2,2.636016940E-1
2.258805675E1,-1.549850404E-1,-1.283065677E-1,8.862781525E-2,2.198586539E-1
2.260597319E1,-1.426005363E-1,-9.966969490E-2,-2.289772034E-3,1.739948393E-1
2.262389159E1,-1.584073454E-1,-7.930684090E-2,-5.447387695E-2,1.853371667E-1
2.264181059E1,-1.695733666E-1,-7.292634249E-2,-2.591514587E-2,1.864000346E-1
2.265971947E1,-1.830793172E-1,-5.327916145E-2,-2.117633820E-2,1.918466646E-1
2.267764830E1,-2.122891247E-1,-6.852453947E-2,-1.635646820E-2,2.236734652E-1
2.269556737E1,-2.361702323E-1,-9.298402071E-2,7.609367371E-3,2.539297328E-1
2.271348588E1,-2.290799767E-1,-1.192042232E-1,-2.575397491E-2,2.595198446E-1
2.273140532E1,-2.364854813E-1,-1.469827294E-1,-6.438636780E-2,2.857882257E-1
2.274932341E1,-2.362166941E-1,-1.591604352E-1,-1.216297150E-1,3.097162545E-1
2.276724278E1,-2.258159816E-1,-2.068721056E-1,-1.455183029E-1,3.390641563E-1
2.278516160E1,-2.056372911E-1,-1.358797550E-1,1.729965210E-2,2.470815276E-1
2.280308061E1,-2.328106463E-1,-1.349187493E-1,-1.594066620E-2,2.695514251E-1
2.282099901E1,-2.117623389E-1,-1.533777118E-1,-6.830692291E-2,2.702477499E-1
2.283891826E1,-1.911056042E-1,-1.163309216E-1,-1.250276566E-1,2.562930943E-1
2.285683720E1,-1.892693639E-1,-6.459099054E-2,-7.234191895E-2,2.126693241E-1
2.287475590E1,-1.825158000E-1,-8.555728197E-2,-5.787372589E-2,2.097175098E-1
2.289267430E1,-1.865031868E-1,-1.065264344E-1,-4.342937469E-2,2.191287989E-1
2.291058763E1,-1.780260801E-1,-1.064628363E-1,-4.816913605E-2,2.129504317E-1
2.292851256E1,-1.713033319E-1,-1.112559438E-1,-8.163261414E-2,2.199695438E-1
2.294643138E1,-1.749175936E-1,-1.257879138E-1,-5.764579773E-2,2.230287017E-1
2.296434990E1,-1.772709489E-1,-1.417733431E-1,-1.984310150E-2,2.278561362E-1
2.298225194E1,-1.789205223E-1,-1.523904204E-1,-1.017189026E-2,2.352421325E-1
2.300018938E1,-2.157477140E-1,-1.822051406E-1,-3.403759003E-2,2.844368944E-1
2.301810594E1,-2.421513945E-1,-1.974586248E-1,-4.835796356E-2,3.161735267E-1
2.303602538E1,-2.655005157E-1,-2.178367376E-1,-7.703304291E-2,3.519622960E-1
2.305394487E1,-2.435154468E-1,-2.031093836E-1,-1.057033539E-1,3.342549828E-1
2.307186760E1,-2.381212115E-1,-1.838972569E-1,-1.385545731E-1,3.312359917E-1
2.308978258E1,-2.039831728E-1,-1.633009911E-1,-1.481409073E-1,3.003699001E-1
2.310770085E1,-1.867899746E-1,-1.338765025E-1,-1.146659851E-1,2.568301008E-1
2.312561998E1,-1.858370304E-1,-1.427277923E-1,-5.790424347E-2,2.413701016E-1
2.314353453E1,-1.754714251E-1,-1.567249298E-1,-1.018714905E-2,2.354924683E-1
2.316145988E1,-2.026749104E-1,-1.759513617E-1,4.776096344E-2,2.726116480E-1
2.317937627E1,-2.082401663E-1,-1.578255296E-1,2.385807037E-2,2.623777280E-1
2.319729515E1,-2.087244689E-1,-1.309900880E-1,-2.863693237E-2,2.480813999E-1
2.321520268E1,-2.094512880E-1,-1.315087080E-1,-3.337574005E-2,2.495562509E-1
2.323313274E1,-2.156410813E-1,-1.461673379E-1,-2.914810181E-2,2.621365645E-1
2.325104094E1,-2.412365079E-1,-1.275850534E-1,-8.585166931E-2,2.860830434E-1
2.326897069E1,-2.424623072E-1,-1.454443932E-1,-1.049480438E-1,3.015893463E-1
2.328688975E1,-2.192210853E-1,-1.438899636E-1,-7.200050354E-2,2.719306500E-1
2.330480412E1,-1.750375330E-1,-1.622006893E-1,-5.274963379E-2,2.443966560E-1
2.332272728E1,-1.823639274E-1,-1.874076128E-1,-4.307651520E-2,2.650166061E-1
2.334064635E1,-2.018741667E-1,-1.934880614E-1,-7.168769836E-2,2.886692488E-1
2.335856523E1,-2.062469423E-1,-1.978260279E-1,-1.434774399E-1,3.197791648E-1
2.337648436E1,-2.011660933E-1,-1.865640283E-1,-1.525812149E-1,3.139346443E-1
2.339440758E1,-1.880432218E-1,-1.690561771E-1,-1.527957916E-1,2.954433926E-1
2.341231883E1,-2.005127221E-1,-1.649630070E-1,-1.099786758E-1,2.819813018E-1
2.343024364E1,-2.068371475E-1,-1.419547796E-1,-3.370094299E-2,2.531175983E-1
2.344815971E1,-2.016320527E-1,-1.483539939E-1,4.203128815E-2,2.538326641E-1
2.346607817E1,-1.935231537E-1,-1.289739609E-1,5.152988434E-2,2.382033219E-1
2.348399748E1,-1.861280203E-1,-1.406096220E-1,-1.057624817E-2,2.335092349E-1
2.350191637E1,-1.873398274E-1,-1.262806058E-1,-9.187602997E-2,2.438938442E-1
2.351983531E1,-1.716844887E-1,-1.238111854E-1,-1.105422974E-1,2.387977654E-1
2.353775359E1,-1.571269333E-1,-1.249956489E-1,-5.389690399E-2,2.078885800E-1
2.355567058E1,-1.501878798E-1,-1.359413266E-1,-1.581192017E-2,2.031906994E-1
2.357359392E1,-1.749290377E-1,-1.444284320E-1,1.759052277E-2,2.275283865E-1
2.359151054E1,-1.807304025E-1,-1.532160044E-1,2.233791351E-2,2.379865642E-1
2.360942876E1,-2.005310059E-1,-1.477142572E-1,-1.630783081E-3,2.490679537E-1
2.362734788E1,-1.822371036E-1,-1.474859715E-1,-5.424118042E-2,2.406337037E-1
2.364526701E1,-1.686440557E-1,-1.210300922E-1,-1.156797409E-1,2.376360730E-1
2.366318645E1,-1.415671706E-1,-9.744232893E-2,-1.538782120E-1,2.306832794E-1
2.368110417E1,-1.174410209E-1,-8.556699753E-2,-1.061811447E-1,1.799681637E-1
2.369902373E1,-9.186863154E-2,-8.244401217E-2,-3.943729401E-2,1.295845699E-1
2.371694163E1,-7.339701056E-2,-8.064383268E-2,3.154754639E-2,1.135156227E-1
2.373484550E1,-7.503595948E-2,-1.006268859E-1,8.826732635E-2,1.534512505E-1
2.375278111E1,-9.454822540E-2,-9.746444225E-2,1.121597290E-1,1.761206667E-1
2.377069896E1,-1.528760046E-1,-9.722471237E-2,6.983757019E-2,1.941674630E-1
2.378861790E1,-1.938844770E-1,-8.787912130E-2,-2.018642426E-2,2.138256816E-1
2.380653715E1,-1.997412145E-1,-8.295482397E-2,-1.251916885E-1,2.499020097E-1
2.382445537E1,-2.454278469E-1,-1.228343844E-1,-1.675777435E-1,3.215671223E-1
2.384237431E1,-2.499412894E-1,-1.574656367E-1,-1.394262314E-1,3.266584591E-1
2.386029344E1,-2.422374487E-1,-1.678765416E-1,-1.297683716E-1,3.220269322E-1
2.387821269E1,-2.497490048E-1,-1.636811495E-1,-1.392574310E-1,3.294824976E-1
2.389613115E1,-2.476536930E-1,-1.538352370E-1,-1.440248489E-1,3.251780880E-1
2.391404973E1,-2.244481742E-1,-1.476902962E-1,-1.440696716E-1,3.048696062E-1
2.393196861E1,-2.051538080E-1,-1.567941308E-1,-1.107196808E-1,2.809472052E-1
2.394988768E1,-2.134654075E-1,-1.422039866E-1,-1.347475052E-1,2.897349550E-1
2.396780632E1,-2.067392766E-1,-1.163167953E-1,-1.731586456E-1,2.936914060E-1
2.398572551E1,-1.906789094E-1,-1.014445424E-1,-1.495761871E-1,2.627212923E-1
2.400364403E1,-1.488481611E-1,-8.956569433E-2,-5.489063263E-2,1.821833423E-1
2.402156352E1,-1.294228286E-1,-6.547111273E-2,3.096008301E-2,1.483079967E-1
2.403946819E1,-1.283272356E-1,-7.341200113E-2,7.869338989E-2,1.674808972E-1
2.405739903E1,-1.247495264E-1,-7.926160097E-2,9.307384491E-2,1.746642102E-1
2.407532158E1,-1.361545324E-1,-6.645113230E-2,3.631401062E-2,1.557963961E-1
2.409323881E1,-1.574036479E-1,-5.281448364E-2,-1.146984100E-2,1.664236621E-1
2.411115690E1,-1.882212162E-1,-6.249314547E-2,-3.529167175E-2,2.014401190E-1
2.412906450E1,-1.743771732E-1,-3.212356567E-2,-5.858612061E-2,1.867395393E-1
2.414699199E1,-1.452384591E-1,-7.308149338E-2,-1.133060455E-2,1.629831196E-1
2.416491710E1,-1.629839987E-1,-1.081958413E-1,5.533599854E-2,2.033032135E-1
2.418283275E1,-1.821118444E-1,-8.824086189E-2,-1.133918762E-3,2.023671400E-1
2.420075169E1,-1.676983982E-1,-9.216064215E-2,-8.220958710E-2,2.082660629E-1
2.421867046E1,-1.826375127E-1,-1.006191373E-1,-1.537160873E-1,2.590546416E-1
2.423658964E1,-1.670715362E-1,-1.105455756E-1,-1.775217056E-1,2.676699058E-1
2.425450786E1,-1.702538282E-1,-1.051135063E-1,-1.487836838E-1,2.493427356E-1
2.427242107E1,-1.718775034E-1,-9.419566393E-2,-1.009950638E-1,2.204874196E-1
2.429034306E1,-1.711199731E-1,-7.892811298E-2,-1.010751724E-1,2.138407882E-1
2.430826811E1,-1.750773937E-1,-9.376794100E-2,-1.106700897E-1,2.273596035E-1
2.432618340E1,-1.847372651E-1,-1.026305556E-1,-1.107196808E-1,2.385785736E-1
2.434410246E1,-1.653054804E-1,-1.149544120E-1,-7.797145844E-2,2.159165742E-1
2.436202104E1,-1.503725946E-1,-1.265776753E-1,-1.596546173E-2,1.972022339E-1
2.437994072E1,-1.348955333E-1,-1.198844910E-1,3.174495697E-2,1.832398384E-1
2.439785893E1,-1.360020041E-1,-1.000807881E-1,1.256275177E-2,1.693237491E-1
2.441577812E1,-1.186269596E-1,-7.108157873E-2,-3.942489624E-2,1.438028818E-1
2.443369652E1,-1.086596847E-1,-5.581325293E-2,-9.684467316E-2,1.558875781E-1
2.445161143E1,-9.976696968E-2,-6.613099575E-2,-7.368469238E-2,1.405567171E-1
2.446953123E1,-1.014143527E-1,-1.010982394E-1,3.563976288E-2,1.475666549E-1
2.448745610E1,-9.888966382E-2,-7.669651508E-2,2.133750916E-2,1.269520001E-1
2.450537230E1,-1.025969535E-1,-5.818659067E-2,-1.024808884E-1,1.562502694E-1
2.452328862E1,-1.126007214E-1,-8.575242758E-2,-1.887912750E-1,2.359545440E-1
2.454121269E1,-1.571152508E-1,-9.850573540E-2,-1.841859818E-1,2.613676679E-1
2.455912865E1,-1.883526891E-1,-1.103812456E-1,-1.652936935E-1,2.738298012E-1
2.457704784E1,-1.917914748E-1,-1.251766086E-1,-1.081962585E-1,2.532974210E-1
2.459496684E1,-1.793355048E-1,-1.267468929E-1,-5.583286285E-2,2.265906148E-1
2.461288670E1,-1.640767753E-1,-1.201408505E-1,-4.171085358E-2,2.075928888E-1
2.463080260E1,-1.764085591E-1,-8.997976780E-2,-7.962226868E-2,2.134386188E-1
2.464872728E1,-1.896135509E-1,-7.279431820E-2,-1.182060242E-1,2.349999481E-1
2.466664214E1,-1.710221320E-1,-9.684699774E-2,-9.467124939E-2,2.181525981E-1
2.468456029E1,-1.254932433E-1,-1.210469007E-1,-9.465217590E-3,1.746152818E-1
2.470247948E1,-9.205440432E-2,-1.134251952E-1,3.281593323E-2,1.497203184E-1
2.472039836E1,-9.189591557E-2,-9.255009890E-2,7.098197937E-2,1.484884558E-1
2.473831761E1,-8.514747024E-2,-9.067177773E-2,8.518028259E-2,1.507552437E-1
2.475623601E1,-1.012836993E-1,-8.599060774E-2,9.470844269E-2,1.631639098E-1
2.477414464E1,-1.177882701E-1,-8.397704363E-2,2.845191956E-2,1.474304316E-1
2.479207200E1,-1.412502825E-1,-8.623361588E-2,-6.712436676E-2,1.785876800E-1
2.480999474E1,-1.389279217E-1,-1.113781333E-1,-8.614540100E-2,1.978056776E-1
2.482791130E1,-1.481964737E-1,-1.645390391E-1,-6.273841858E-2,2.301551637E-1
2.484583055E1,-1.552514583E-1,-1.838386357E-1,-3.876113892E-2,2.437254299E-1
2.486374943E1,-1.637848169E-1,-1.961453557E-1,-8.644866943E-2,2.697625609E-1
2.488166814E1,-1.766149551E-1,-1.897564530E-1,-1.771535873E-1,3.139804888E-1
2.489958671E1,-1.524274796E-1,-1.960158348E-1,-2.009849548E-1,3.194546855E-1
2.491750609E1,-1.409672797E-1,-1.887122989E-1,-1.436824799E-1,2.759144083E-1
2.493542491E1,-1.276736856E-1,-1.992778182E-1,-2.491092682E-2,2.379764129E-1
2.495333202E1,-1.221941784E-1,-1.834000647E-1,6.649971008E-2,2.301938583E-1
2.497126201E1,-1.057675779E-1,-1.599465013E-1,3.363800049E-2,1.946822510E-1
2.498918138E1,-1.316925883E-1,-1.368321180E-1,-1.420974731E-2,1.904412856E-1
2.500708812E1,-1.407249421E-1,-1.130015850E-1,-7.105064392E-2,1.939614950E-1
2.502501646E1,-1.405950934E-1,-9.861481190E-2,-1.051530838E-1,2.013679032E-1
2.504294066E1,-1.458811313E-1,-9.406399727E-2,-9.077167511E-2,1.958796494E-1
2.506085673E1,-1.554217190E-1,-9.432774782E-2,-6.682586670E-2,1.936990738E-1
2.507877562E1,-1.500336677E-1,-1.194012761E-1,-5.173683167E-3,1.918164049E-1
2.509669469E1,-1.503719985E-1,-1.153820753E-1,-1.943302155E-2,1.905318965E-1
2.511461064E1,-1.561912000E-1,-1.263635755E-1,-5.281829834E-2,2.077335235E-1
2.513253441E1,-1.683769971E-1,-1.317473054E-1,-8.145809174E-2,2.287872076E-1
2.515045116E1,-1.839063168E-1,-1.514328718E-1,-7.664680481E-2,2.502562301E-1
2.516837034E1,-1.708943695E-1,-1.546778679E-1,-8.567237854E-2,2.459062520E-1
2.518627397E1,-1.651339382E-1,-1.579726934E-1,-7.142257690E-2,2.394280140E-1
2.520421043E1,-1.545701325E-1,-1.610133648E-1,-7.634449005E-2,2.358934307E-1
2.522212651E1,-1.632251441E-1,-1.260770559E-1,-6.210994720E-2,2.153961867E-1
2.524004570E1,-1.763985157E-1,-1.106203794E-1,-5.741882324E-2,2.159866337E-1
2.525796416E1,-1.707574576E-1,-8.070057631E-2,-5.691623688E-2,1.972565598E-1
2.527588310E1,-1.554858834E-1,-5.073988438E-2,-6.658649445E-2,1.765903651E-1
2.529380168E1,-1.286589801E-1,-5.451601744E-2,-7.148742676E-2,1.569572601E-1
2.531172075E1,-1.245617345E-1,-3.386658430E-2,-1.098976135E-1,1.695289258E-1
2.532962913E1,-1.323238909E-1,-4.169875383E-2,-1.339712143E-1,1.928644198E-1
2.534755461E1,-1.380610019E-1,-5.881232023E-2,-5.277633667E-2,1.590756769E-1
2.536548112E1,-1.254746318E-1,-5.601221323E-2,9.277343750E-3,1.377218950E-1
2.538339659E1,-9.090150893E-2,-6.402349472E-2,7.556724548E-2,1.344340016E-1
2.540131462E1,-1.068996266E-1,-9.556269646E-2,1.324968338E-1,1.952310684E-1
2.541922441E1,-1.114557534E-1,-9.970939159E-2,7.112407684E-2,1.655988589E-1
2.543715257E1,-1.324821860E-1,-1.139264703E-1,-3.389072418E-2,1.779869417E-1
2.545506315E1,-1.417578161E-1,-1.162199378E-1,-9.117603302E-2,2.047325606E-1
2.547298991E1,-1.230990589E-1,-1.132744551E-1,-1.054000854E-1,1.977211635E-1
2.549090916E1,-1.247963011E-1,-7.195109129E-2,-1.381177902E-1,1.995685353E-1
2.550881224E1,-1.120106876E-1,-6.851416826E-2,-1.380023956E-1,1.904868672E-1
2.552674425E1,-1.221079007E-1,-6.431961060E-2,-1.146659851E-1,1.794314350E-1
2.554466844E1,-1.199787632E-1,-5.962300301E-2,-8.119106293E-2,1.566582101E-1
2.556258446E1,-1.214872450E-1,-5.142921209E-2,-9.490203857E-2,1.625131117E-1
2.558050352E1,-1.233408600E-1,-5.264043808E-2,-1.140031815E-1,1.760133769E-1
2.559841075E1,-1.351546943E-1,-5.695444345E-2,-9.971427917E-2,1.773514519E-1
2.561634074E1,-1.367118210E-1,-9.480702877E-2,-8.852005005E-3,1.666038796E-1
2.563425999E1,-1.462485343E-1,-1.010090113E-1,3.427410126E-2,1.810142761E-1
2.565217894E1,-1.529132724E-1,-8.708804846E-2,-3.914833069E-3,1.760173939E-1
2.567009508E1,-1.423209310E-1,-7.354533672E-2,-4.688549042E-2,1.669203797E-1
2.568801933E1,-1.359012574E-1,-8.418416977E-2,-8.983898163E-2,1.833771219E-1
2.570593553E1,-1.155062541E-1,-6.000900269E-2,-1.041202545E-1,1.666847400E-1
2.572385423E1,-1.131357402E-1,-6.000429392E-2,-7.536983490E-2,1.485961743E-1
2.574176158E1,-1.028210893E-1,-5.714327097E-2,-4.717445374E-2,1.267397290E-1
2.575968956E1,-9.428311139E-2,-1.073687673E-1,-2.792263031E-2,1.455920003E-1
2.577761272E1,-9.984569252E-2,-1.143995523E-1,-4.696655273E-2,1.589411116E-1
2.579552977E1,-9.672854841E-2,-1.199343801E-1,-6.609916687E-2,1.676596775E-1
2.581344871E1,-1.145286262E-1,-1.100125909E-1,-4.221439362E-2,1.643217314E-1
2.583135875E1,-1.294502765E-1,-9.613823891E-2,-4.695892334E-2,1.679436678E-1
2.584928563E1,-1.483459622E-1,-6.374573708E-2,-1.037149429E-1,1.919031862E-1
2.586720555E1,-1.759988368E-1,-7.878708839E-2,-1.371793747E-1,2.366456775E-1
2.588512456E1,-1.964536607E-1,-9.208399057E-2,-1.228799820E-1,2.493451265E-1
2.590304277E1,-2.029478401E-1,-1.124318838E-1,-8.006858826E-2,2.454378396E-1
2.592096196E1,-1.944785714E-1,-1.086851358E-1,-4.681205750E-2,2.276526789E-1
2.593888036E1,-1.982690692E-1,-1.122754216E-1,-5.647945404E-2,2.347473596E-1
2.595679954E1,-2.140002698E-1,-1.025979519E-1,-1.091833115E-1,2.612344746E-1
2.597470140E1,-2.202196270E-1,-8.091396093E-2,-1.811466217E-1,2.964082518E-1
2.599263707E1,-2.064404786E-1,-8.609956503E-2,-2.005815506E-1,3.004392863E-1
2.601055595E1,-1.572379619E-1,-1.046456695E-1,-1.345005035E-1,2.318725474E-1
2.602847514E1,-1.222686321E-1,-1.097695231E-1,-2.946281433E-2,1.669341907E-1
2.604639348E1,-8.125132322E-2,-1.218271255E-1,5.116939545E-2,1.551190932E-1
2.606431230E1,-7.478944957E-2,-1.202864647E-1,7.975769043E-2,1.625533283E-1
2.608223118E1,-5.228511989E-2,-1.094005108E-1,5.090999603E-2,1.315067801E-1
2.610015031E1,-6.429160386E-2,-9.922254086E-2,2.690887451E-2,1.212543214E-1
2.611806902E1,-1.066053882E-1,-5.539333820E-2,-3.956031799E-2,1.264837914E-1
2.613598802E1,-1.371554434E-1,-1.161962748E-2,-9.641265869E-2,1.680536586E-1
2.615390391E1,-1.603057534E-1,-1.496577263E-2,-9.166717529E-2,1.852694792E-1
2.617182432E1,-1.574876904E-1,-2.364218235E-2,-3.427124023E-2,1.628982607E-1
2.618974547E1,-1.695792079E-1,-2.985757589E-2,-7.009506226E-4,1.721890645E-1
2.620766356E1,-1.847123504E-1,-4.346597195E-2,-1.966857910E-2,1.907742019E-1
2.622558238E1,-1.855134070E-1,-6.069803238E-2,-5.302906036E-2,2.022660539E-1
2.624350126E1,-1.842028499E-1,-1.145922542E-1,-1.527500153E-2,2.174750567E-1
2.626141966E1,-1.622156799E-1,-1.209554672E-1,3.998756409E-3,2.023861208E-1
2.627933861E1,-1.247410849E-1,-1.271746755E-1,-3.473758698E-2,1.814950035E-1
2.629725767E1,-9.923613816E-2,-1.247161627E-1,-9.143733978E-2,1.837463454E-1
2.631516447E1,-9.075348079E-2,-9.682404995E-2,-1.823158264E-1,2.254997816E-1
2.633309776E1,-1.027460769E-1,-8.661055565E-2,-2.350378036E-1,2.707414150E-1
2.635101384E1,-1.102042943E-1,-7.509118319E-2,-1.825876236E-1,2.261015537E-1
2.636893321E1,-1.045270041E-1,-7.141309977E-2,-1.014890671E-1,1.622521375E-1
2.638684007E1,-7.872337103E-2,-5.834692717E-2,-2.996158600E-2,1.024667248E-1
2.640476756E1,-9.994154423E-2,-6.085598469E-2,8.146286011E-3,1.172950345E-1
2.642269243E1,-1.048099697E-1,-5.035793781E-2,-1.106357574E-2,1.168051983E-1
2.644060844E1,-8.516154438E-2,-3.512549400E-2,-3.027057648E-2,9.696698805E-2
2.645852739E1,-1.001997516E-1,-4.434019327E-2,-1.533126831E-2,1.106394628E-1
2.647642998E1,-1.051780283E-1,-4.917097092E-2,3.816604614E-3,1.161669854E-1
2.649436027E1,-1.093527377E-1,-4.980194569E-2,3.851890564E-3,1.202210135E-1
2.651228838E1,-1.496705264E-1,-5.182230473E-2,-1.039505005E-2,1.587289350E-1
2.653020250E1,-1.381590068E-1,-6.983190775E-2,-3.410148621E-2,1.585159862E-1
2.654812126E1,-1.107503697E-1,-7.266163826E-2,-1.056871414E-1,1.694553922E-1
2.656604033E1,-9.846022725E-2,-9.168308973E-2,-7.277107239E-2,1.529569687E-1
2.658395927E1,-1.031709760E-1,-1.050373316E-1,-1.061916351E-2,1.476138813E-1
2.660187828E1,-8.370743692E-2,-1.017121077E-1,-2.488136292E-2,1.340573387E-1
2.661979631E1,-8.581987023E-2,-7.595086098E-2,-9.166431427E-2,1.467512519E-1
2.663771562E1,-8.209522814E-2,-5.185723305E-2,-1.346359253E-1,1.659988900E-1
2.665563475E1,-8.397860080E-2,-5.572086573E-2,-6.287002563E-2,1.187849334E-1
2.667355351E1,-6.888600439E-2,-7.555836439E-2,3.630638123E-3,1.023109455E-1
2.669147221E1,-7.887704670E-2,-9.306579828E-2,-1.529312134E-2,1.229500340E-1
2.670939091E1,-9.560449421E-2,-8.621960878E-2,-8.632564545E-2,1.550037332E-1
2.672730974E1,-1.336191893E-1,-8.268940449E-2,-1.340999603E-1,2.065778902E-1
2.674522905E1,-1.700929552E-1,-6.806725264E-2,-1.568107605E-1,2.411521903E-1
2.676314751E1,-1.792666018E-1,-9.618967772E-2,-1.238908768E-1,2.381972249E-1
2.678106621E1,-1.624553651E-1,-9.602522850E-2,-1.334409714E-1,2.311256866E-1
2.679898485E1,-1.476230025E-1,-1.004741192E-1,-1.813268661E-1,2.544936775E-1
2.681690477E1,-1.428775191E-1,-1.286793351E-1,-2.148599625E-1,2.883351526E-1
2.683482249E1,-1.097753197E-1,-1.311132908E-1,-2.394409180E-1,2.942333581E-1
2.685274180E1,-1.164652705E-1,-1.453967690E-1,-1.439886093E-1,2.354508426E-1
2.687066069E1,-8.149019629E-2,-1.580597758E-1,7.992458344E-2,1.949653402E-1
2.688857811E1,-7.482687384E-2,-1.650640070E-1,2.083482742E-1,2.761416138E-1
2.690649834E1,-9.957612306E-2,-8.889698982E-2,1.233587265E-1,1.817565803E-1
2.692441728E1,-1.057175249E-1,-3.943568468E-2,-2.452373505E-2,1.154676659E-1
2.694233592E1,-1.275182068E-1,-2.617061138E-3,-9.173393250E-2,1.571077861E-1
2.696025499E1,-1.379296929E-1,1.987117529E-2,-1.392087936E-1,1.969734805E-1
2.697817345E1,-1.484724879E-1,8.488059044E-3,-1.010961533E-1,1.798236887E-1
2.699609282E1,-1.441718042E-1,-1.835346222E-2,-3.006362915E-2,1.484121979E-1
2.701401158E1,-1.419800818E-1,-4.616057873E-2,2.728176117E-2,1.517677079E-1
2.703191240E1,-1.253635585E-1,-8.024370670E-2,-2.116680145E-2,1.503432997E-1
2.704984581E1,-9.174575657E-2,-8.462566137E-2,-1.455917358E-1,1.917700184E-1
2.706777110E1,-5.343004316E-2,-1.063271761E-1,-2.366724014E-1,2.649038759E-1
2.708568681E1,-1.513037086E-2,-1.071045995E-1,-2.615251541E-1,2.830118895E-1
2.710360600E1,2.112597227E-3,-1.181024313E-1,-1.990318298E-1,2.314439816E-1
2.712152422E1,-4.613410681E-2,-1.107718349E-1,-1.800994873E-1,2.164129861E-1
2.713943956E1,-4.169914126E-2,-1.451396346E-1,-1.358985901E-2,1.516212920E-1
2.715736601E1,-5.275453627E-2,-1.609736979E-1,2.253103256E-1,2.818870613E-1
2.717528136E1,-8.753238618E-2,-1.462936401E-1,2.346973419E-1,2.900803166E-1
2.719319945E1,-1.018178090E-1,-1.074086428E-1,1.155729294E-1,1.877780200E-1
2.721110698E1,-1.248144284E-1,-8.458220959E-2,2.948951721E-2,1.536308020E-1
2.722903783E1,-1.115318686E-1,-6.187814474E-2,-1.764488220E-2,1.287618126E-1
2.724695689E1,-9.763242304E-2,-1.781040430E-2,-6.544303894E-2,1.188784752E-1
2.726487492E1,-8.190853894E-2,2.128171921E-2,-6.058883667E-2,1.040813502E-1
2.728279417E1,-7.709370553E-2,-5.197227001E-3,-7.473564148E-2,1.074982172E-1
2.730071294E1,-8.047994971E-2,-1.825320721E-2,-1.606245041E-1,1.805835906E-1
2.731863219E1,-9.365743399E-2,-6.169205904E-2,-2.179899216E-1,2.451473659E-1
2.733655052E1,-1.165298820E-1,-1.259430349E-1,-1.278228760E-1,2.139615597E-1
2.735446709E1,-1.102003157E-1,-1.526843905E-1,-3.222751617E-2,1.910372882E-1
2.737238860E1,-1.260423809E-1,-1.719282866E-1,-1.365661621E-2,2.136176975E-1
2.739030717E1,-1.459033936E-1,-1.816918254E-1,4.370212555E-2,2.370856290E-1
2.740822563E1,-1.465140581E-1,-1.626074016E-1,-2.271270752E-2,2.200531830E-1
2.742614165E1,-1.257949173E-1,-1.471930146E-1,-1.137247086E-1,2.245516736E-1
2.744405638E1,-1.146032289E-1,-1.152181625E-1,-1.186494827E-1,2.012133813E-1
2.746198021E1,-8.654865623E-2,-7.846188545E-2,-9.486007690E-2,1.504837917E-1
2.747990391E1,-7.219225913E-2,-7.020187378E-2,-4.716110229E-2,1.111944015E-1
2.749782005E1,-8.810976148E-2,-3.934586048E-2,5.374908447E-3,9.664531259E-2
2.751573881E1,-8.659043908E-2,-2.339953184E-2,-1.329421997E-2,9.067622905E-2
2.753364653E1,-1.240758747E-1,-3.696858883E-2,-2.776145935E-2,1.324092061E-1
2.755157359E1,-1.441284716E-1,-4.201257229E-2,-5.171966553E-2,1.587860081E-1
2.756949852E1,-1.344465315E-1,-5.566537380E-2,-9.962844849E-2,1.763528606E-1
2.758741423E1,-1.288996488E-1,-5.387455225E-2,-7.103347778E-2,1.567269658E-1
2.760533354E1,-1.068486050E-1,-6.718248129E-2,-9.509086609E-3,1.265722438E-1
2.762325194E1,-1.079179645E-1,-3.947323561E-2,1.503849030E-2,1.158903774E-1
2.764117119E1,-1.086034030E-1,6.651639938E-3,7.362365723E-4,1.088093998E-1
2.765908989E1,-1.080136746E-1,3.263837099E-2,-3.336906433E-3,1.128864567E-1
2.767701366E1,-9.864552319E-2,1.906198263E-2,-4.201698303E-2,1.089023659E-1
2.769491551E1,-8.633130789E-2,1.337766647E-3,-5.140304565E-2,1.004846130E-1
2.771284642E1,-7.719424367E-2,-2.954131365E-2,-4.707622528E-2,9.511998452E-2
2.773076500E1,-7.070432603E-2,-5.497056246E-2,-3.738117218E-2,9.704749605E-2
2.774868407E1,-3.651271015E-2,-5.287623405E-2,-2.759838104E-2,6.993385994E-2
2.776660228E1,-4.003432393E-2,-3.675872087E-2,-1.241683960E-2,5.575059245E-2
2.778452177E1,-6.956233084E-2,-2.130174637E-2,-1.695919037E-2,7.470138157E-2
2.780244078E1,-9.951201081E-2,-1.705431938E-2,-1.660346985E-2,1.023189392E-1
2.782035960E1,-1.084086150E-1,-1.888382435E-2,-4.903221130E-2,1.204706785E-1
2.783827788E1,-8.343452215E-2,-3.390294313E-2,-6.349277496E-2,1.101910228E-1
2.785619426E1,-6.353484839E-2,-6.831264496E-2,-1.519107819E-2,9.452017392E-2
2.787411284E1,-7.235388458E-2,-6.322246790E-2,-2.915763855E-2,1.004108209E-1
2.789203819E1,-6.874051690E-2,-9.328180552E-2,-7.728767395E-2,1.392843798E-1
2.790995305E1,-8.492273092E-2,-8.003908396E-2,-1.289873123E-1,1.739420936E-1
2.792787254E1,-1.254251599E-1,-7.135564089E-2,-1.950855255E-1,2.426550236E-1
2.794579130E1,-1.301822364E-1,-6.514310837E-2,-1.805505753E-1,2.319257413E-1
2.796371056E1,-1.428208649E-1,-6.288683414E-2,-8.950805664E-2,1.799006547E-1
2.798162840E1,-1.297024041E-1,-6.930100918E-2,-2.781677246E-2,1.496633434E-1
2.799954759E1,-1.269432604E-1,-7.696306705E-2,5.813598633E-3,1.485654838E-1
2.801746385E1,-1.106438935E-1,-8.176255226E-2,-8.005809784E-2,1.591743860E-1
2.803538872E1,-1.072619855E-1,-7.017618418E-2,-1.893272400E-1,2.286364673E-1
2.805330400E1,-9.666045010E-2,-6.025147438E-2,-2.085018158E-1,2.375847006E-1
2.807122295E1,-1.081288829E-1,-5.885297060E-2,-1.464490891E-1,1.913187475E-1
2.808913231E1,-1.022380367E-1,-6.309217215E-2,-7.953357697E-2,1.440792428E-1
2.810705955E1,-9.154774994E-2,-6.793040037E-2,-8.438873291E-2,1.418343684E-1
2.812498131E1,-8.770480752E-2,-8.575236797E-2,-7.077312469E-2,1.416136895E-1
2.814289842E1,-9.277491271E-2,-8.429795504E-2,-8.682250977E-3,1.256531382E-1
2.816081718E1,-8.087994158E-2,-1.073139906E-1,1.991367340E-2,1.358470166E-1
2.817872288E1,-7.893168181E-2,-8.699339628E-2,5.507469177E-3,1.175941904E-1
2.819665129E1,-5.757084489E-2,-8.677589893E-2,-2.323341370E-2,1.066970024E-1
2.821457219E1,-6.765664369E-2,-1.015786529E-1,-7.107639313E-2,1.412356110E-1
2.823249235E1,-6.428064406E-2,-8.401787281E-2,-1.134510040E-1,1.551197424E-1
2.825041032E1,-4.831422865E-2,-7.590669394E-2,-1.426668167E-1,1.686710155E-1
2.826833165E1,-7.617042214E-2,-8.888840675E-2,-9.969520569E-2,1.537602553E-1
2.828624956E1,-8.363587409E-2,-9.156262875E-2,-3.284740448E-2,1.282872807E-1
2.830416808E1,-9.474333376E-2,-9.620374441E-2,1.494693756E-2,1.358487051E-1
2.832208714E1,-1.062550843E-1,-8.394920826E-2,-3.277015686E-2,1.393251438E-1
2.834000554E1,-1.023273319E-1,-5.680358410E-2,-1.133756638E-1,1.629465285E-1
2.835792485E1,-1.232058853E-1,-5.076742172E-2,-1.517438889E-1,2.019485803E-1
2.837584355E1,-1.189759076E-1,-8.624655008E-2,-7.600593567E-2,1.654407333E-1
2.839376256E1,-1.262128800E-1,-9.282565117E-2,-9.056377411E-2,1.809643329E-1
2.841167015E1,-1.541960090E-1,-7.639729977E-2,-1.475257874E-1,2.266645419E-1
2.842959709E1,-1.209217235E-1,-5.915635824E-2,-1.237363815E-1,1.828448251E-1
2.844752184E1,-9.750787914E-2,-4.668259621E-2,-6.708431244E-2,1.272295416E-1
2.846543773E1,-6.119199097E-2,-5.914223194E-2,2.851009369E-2,8.975014652E-2
2.848335600E1,-6.054712087E-2,-6.442004442E-2,1.897048950E-2,9.041999470E-2
2.850126848E1,-7.439479232E-2,-3.205090761E-2,-7.607173920E-2,1.111249536E-1
2.851919224E1,-9.473086149E-2,8.093833923E-3,-1.622972488E-1,1.880953036E-1
2.853711552E1,-1.127543002E-1,-3.111779690E-3,-1.338186264E-1,1.750161140E-1
2.855503154E1,-9.065595269E-2,-1.422727108E-2,-5.803012848E-2,1.085744575E-1
2.857295067E1,-9.410208464E-2,-1.669538021E-2,2.319240570E-2,9.834544085E-2
2.859087175E1,-9.367077053E-2,-3.596448898E-2,6.144332886E-2,1.176560257E-1
2.860878892E1,-9.720931947E-2,-8.522808552E-3,-5.440711975E-3,9.773377822E-2
2.862670677E1,-1.124982983E-1,-5.918741226E-3,-8.604526520E-2,1.417557275E-1
2.864462572E1,-1.071224585E-1,-1.594418287E-2,-1.147012711E-1,1.577523999E-1
