"Time (s)","Linear Acceleration x (m/s^2)","Linear Acceleration y (m/s^2)","Linear Acceleration z (m/s^2)","Absolute acceleration (m/s^2)"
4.040426300E-2,-1.735861063E0,2.744255066E-1,-3.358354807E0,3.790391800E0
5.832742000E-2,-1.441350102E0,5.506629944E-1,-4.579155445E0,4.832120077E0
7.623989600E-2,-9.566780925E-1,1.075533390E0,-4.648676872E0,4.866436243E0
9.415646100E-2,-1.460366964E0,1.741105556E0,-4.608337402E0,5.138180013E0
1.120724760E-1,-2.402114391E0,2.030261517E0,-4.042608738E0,5.121991876E0
1.299890420E-1,-3.026050568E0,1.681054592E0,-2.808101177E0,4.457393723E0
1.479045680E-1,-3.843151808E0,1.338057518E0,-1.916066647E0,4.497946769E0
1.658207680E-1,-3.775705576E0,1.210608006E0,-1.044014454E0,4.100181767E0
1.837367830E-1,-3.199351788E0,1.120787144E0,-1.103908062E0,3.565196866E0
2.016532870E-1,-2.280573606E0,9.392004013E-1,-1.779556751E0,3.041370678E0
2.195688760E-1,-1.318799496E0,9.020662308E-1,-2.333992481E0,2.828511357E0
2.374851970E-1,-9.067022204E-1,1.034682274E0,-2.905492306E0,3.214741337E0
2.553936430E-1,-9.148868322E-1,1.462838650E0,-2.731554508E0,3.230836558E0
2.733138700E-1,-1.634998083E0,1.787331581E0,-3.232325554E0,4.039269909E0
2.912371500E-1,-2.354345560E0,1.730518341E0,-2.994193554E0,4.183638582E0
3.091496250E-1,-2.547308445E0,1.385617733E0,-1.352206230E0,3.199559111E0
3.270657020E-1,-2.682433605E0,1.016150951E0,-3.037614822E-1,2.884490222E0
3.449648110E-1,-2.583632708E0,1.147715569E0,1.560497284E-2,2.827127961E0
3.628973660E-1,-1.813954473E0,8.406591415E-1,-1.764676571E0,2.666687462E0
3.808139930E-1,-2.328618050E0,1.794991016E0,-1.084545135E0,3.133798481E0
3.987299470E-1,-2.129305124E0,1.911038876E0,-1.645145416E-1,2.865846285E0
4.166465120E-1,-1.989312530E0,1.754728317E0,3.847579956E-1,2.680387010E0
4.345458040E-1,-2.211191654E0,2.137991905E0,1.096383572E0,3.265338398E0
4.524763460E-1,-2.401538849E0,2.438988209E0,1.758852959E0,3.848326397E0
4.703972440E-1,-1.484839678E0,1.845162868E0,8.292775154E-1,2.509397553E0
4.883110630E-1,-1.320146322E0,1.453350544E0,-1.303272247E-1,1.967739643E0
5.062279330E-1,-1.564654708E0,1.149776936E0,6.992483139E-2,1.942941285E0
5.241428500E-1,-1.822686911E0,1.093995571E0,-5.201764107E-1,2.188514880E0
5.420561190E-1,-1.990880847E0,9.190015793E-1,-1.259604454E0,2.528789005E0
5.599778110E-1,-2.915524244E0,6.391468048E-1,-2.912671566E0,4.170425147E0
5.778908350E-1,-2.718236446E0,2.288497925E0,-2.475405693E0,4.330550251E0
5.958071570E-1,-2.793600082E0,1.903752804E0,-1.555765629E0,3.721408719E0
6.137231110E-1,-2.764361143E0,2.210924149E0,-1.940306187E0,4.036665235E0
6.316396760E-1,-1.894535303E0,2.336165428E0,-1.664399147E0,3.437609263E0
6.495553860E-1,-1.826273203E0,2.255318165E0,-7.335047722E-1,2.993286336E0
6.674646270E-1,-2.527592897E0,2.553496361E0,5.094623566E-1,3.628859520E0
6.853876020E-1,-3.820598602E0,1.814819813E0,1.019747734E0,4.350911407E0
7.033042880E-1,-3.632274628E0,1.366195202E0,1.285818100E0,4.088182541E0
7.212196320E-1,-2.894131184E0,1.152656555E0,1.199666023E0,3.338234715E0
7.391359540E-1,-2.640264273E0,1.258387566E0,2.610654831E-1,2.936441704E0
7.570404950E-1,-2.282382965E0,1.674468517E0,-5.871906281E-1,2.891004955E0
7.749683510E-1,-2.117900848E0,2.108615875E0,-1.475603580E0,3.333042280E0
7.928842440E-1,-2.450609684E0,2.297215462E0,-1.310275078E0,3.605482975E0
8.108005650E-1,-2.639651537E0,2.269284725E0,-9.251160622E-1,3.601840242E0
8.287164580E-1,-2.799960136E0,1.916447163E0,-2.624902725E-1,3.403152602E0
8.466214270E-1,-2.756766081E0,1.536772728E0,6.674957275E-2,3.156879020E0
8.645481840E-1,-2.602112532E0,1.136523724E0,-1.846599579E-2,2.839545174E0
8.824649330E-1,-2.619152308E0,9.311299324E-1,-5.853781700E-1,2.840709306E0
9.003810700E-1,-2.458712101E0,1.087238789E0,-1.466563702E0,3.062378564E0
9.182948270E-1,-2.787564754E0,1.649003983E0,-2.007389069E0,3.810425471E0
9.362042510E-1,-2.752651691E0,2.350635529E0,-2.163134575E0,4.216838853E0
9.541293000E-1,-3.024309874E0,2.659699440E0,-1.313609600E0,4.236274484E0
9.720295690E-1,-2.663432360E0,2.511350155E0,-5.938234329E-1,3.708554679E0
9.899524210E-1,-2.676739216E0,1.847673416E0,3.959951401E-1,3.276528961E0
1.007862027E0,-2.525892735E0,1.139049530E0,3.508968353E-1,2.792972704E0
1.025793729E0,-2.350446701E0,8.890085220E-1,-1.744451523E-1,2.519001183E0
1.043709928E0,-2.236498833E0,1.015663624E0,-1.137077808E0,2.706740765E0
1.061624845E0,-2.288612127E0,1.366010189E0,-1.330513000E0,2.978924999E0
1.079543546E0,-2.531819582E0,1.756490707E0,-1.670131207E0,3.504954814E0
1.097458280E0,-2.799880028E0,2.033046246E0,-1.341041565E0,3.710929491E0
1.115374234E0,-2.777736664E0,2.162838459E0,-1.356760979E0,3.772862511E0
1.133291044E0,-2.810161591E0,1.985387802E0,-1.144231796E0,3.626022517E0
1.151206509E0,-2.702483654E0,1.829129696E0,-8.465766907E-1,3.371323989E0
1.169123014E0,-2.698360443E0,1.839334965E0,-4.191818237E-1,3.292417895E0
1.187038846E0,-2.549524546E0,1.741969109E0,-1.545858383E-1,3.091670837E0
1.204952603E0,-2.727224827E0,1.486609459E0,7.519340515E-2,3.106994848E0
1.222873563E0,-2.396255732E0,1.401335239E0,-2.699947357E-2,2.776060330E0
1.240787320E0,-2.057363749E0,1.268500328E0,-6.725873947E-1,2.508826913E0
1.258703397E0,-2.148320675E0,1.407888412E0,-1.521466255E0,2.985346055E0
1.276619657E0,-2.282597303E0,1.731524467E0,-2.083779335E0,3.542677483E0
1.294535306E0,-2.449320793E0,2.156167984E0,-1.416430950E0,3.557317720E0
1.312451688E0,-2.773634911E0,2.172718048E0,-8.761153221E-1,3.630610471E0
1.330367948E0,-2.769469500E0,1.961606503E0,-2.281494141E-1,3.401457560E0
1.348284208E0,-2.658599377E0,1.875144005E0,6.408405304E-2,3.253985625E0
1.366199857E0,-2.696379662E0,1.483572483E0,2.011756897E-1,3.084140439E0
1.384116239E0,-2.783610582E0,1.251212597E0,1.630105972E-1,3.056238422E0
1.402032499E0,-2.494592667E0,1.285615921E0,-3.424739838E-1,2.827205210E0
1.419937040E0,-2.701010466E0,1.335755348E0,-1.100118637E0,3.207796892E0
1.437865445E0,-2.449517488E0,1.650938034E0,-1.677243233E0,3.396892283E0
1.455780729E0,-2.531835556E0,1.758590698E0,-1.619618416E0,3.482240132E0
1.473685269E0,-2.398061752E0,1.960810661E0,-1.223537445E0,3.330543874E0
1.491613309E0,-2.321791887E0,2.009687424E0,-9.094595909E-1,3.202604855E0
1.509519743E0,-2.471121788E0,1.806330681E0,-4.634046555E-1,3.095806405E0
1.527445340E0,-2.577355623E0,1.641283989E0,8.518600464E-2,3.056768195E0
1.545361539E0,-2.503841162E0,1.579610825E0,-3.284454346E-3,2.960473224E0
1.563277860E0,-2.729279995E0,1.542785645E0,-2.965087891E-1,3.149138660E0
1.581193326E0,-2.797120571E0,1.521724224E0,-5.497303009E-1,3.231366817E0
1.599109647E0,-2.643671989E0,1.646595478E0,-6.377558708E-1,3.179152530E0
1.617026090E0,-2.678662300E0,1.620522022E0,-1.175476551E0,3.344109517E0
1.634942655E0,-2.598670244E0,1.670824528E0,-1.604478836E0,3.481248910E0
1.652858121E0,-2.452815056E0,1.873742580E0,-1.613159180E0,3.482742525E0
1.670771512E0,-2.562187195E0,1.856959820E0,-1.083614349E0,3.344745589E0
1.688693570E0,-2.513719082E0,1.907646656E0,-3.081531525E-1,3.170624190E0
1.706606962E0,-2.237747192E0,1.921470165E0,4.331398010E-2,2.949819688E0
1.724522671E0,-2.728255033E0,1.401005268E0,-1.044378281E-1,3.068729142E0
1.742436124E0,-2.235842466E0,1.359214306E0,1.155786514E-1,2.619124565E0
1.760358060E0,-2.625756025E0,1.177230358E0,-7.103676796E-1,2.963964956E0
1.778271512E0,-2.465461731E0,1.452326298E0,-9.402699471E-1,3.011952987E0
1.796186978E0,-2.588556528E0,1.628057003E0,-1.509985924E0,3.410462138E0
1.814103543E0,-2.582241774E0,1.701170444E0,-1.393858433E0,3.391871871E0
1.832019804E0,-2.843415499E0,1.849333763E0,-9.916844368E-1,3.533905076E0
1.849936063E0,-2.552880764E0,2.004945278E0,-8.713297844E-1,3.360985177E0
1.867851712E0,-2.736984015E0,1.856442928E0,-3.267822266E-1,3.323288803E0
1.885768034E0,-2.370471478E0,1.747924328E0,-1.650848389E-1,2.949852112E0
1.903684110E0,-2.516446829E0,1.671049118E0,-3.663158417E-2,3.020968664E0
1.921600614E0,-2.308843136E0,1.610692501E0,-3.755531311E-1,2.840092800E0
1.939516080E0,-2.638637066E0,1.558570385E0,-5.633988380E-1,3.115921286E0
1.957418180E0,-2.417690754E0,1.493266106E0,-5.606899261E-1,2.896453942E0
1.975348661E0,-2.334606409E0,1.480190754E0,-8.033742905E-1,2.878673654E0
1.993268339E0,-2.207512140E0,1.559561253E0,-1.452358246E0,3.068335970E0
2.011168912E0,-2.485853195E0,1.741652012E0,-1.615891933E0,3.438593401E0
2.029097440E0,-2.601718187E0,2.062761784E0,-1.088407040E0,3.494074067E0
2.047013212E0,-2.723382711E0,1.878110886E0,-1.562395096E-1,3.311876307E0
2.064929655E0,-2.710408688E0,1.651416779E0,2.540817261E-1,3.184030489E0
2.082845486E0,-2.697142124E0,1.469583988E0,-1.663875580E-1,3.076026261E0
2.100761930E0,-2.740109444E0,1.453644753E0,-6.061902046E-1,3.160498283E0
2.118677945E0,-2.630742073E0,1.607359409E0,-8.212962151E-1,3.190444420E0
2.136594510E0,-2.741545200E0,1.421827316E0,-7.768001556E-1,3.184506474E0
2.154509976E0,-2.434300184E0,1.480466843E0,-7.824006081E-1,2.954615063E0
2.172426541E0,-2.270127058E0,1.451789856E0,-1.251639843E0,2.971156836E0
2.190342741E0,-2.296521187E0,1.666094303E0,-1.579607487E0,3.247312674E0
2.208259061E0,-2.393552542E0,1.968879223E0,-9.280457497E-1,3.235250852E0
2.226162259E0,-2.377042055E0,1.870425701E0,-1.389427185E-1,3.027891397E0
2.244093900E0,-2.471684217E0,1.581870079E0,1.389904022E-1,2.937831539E0
2.262007047E0,-2.582151413E0,1.340693951E0,-4.238033295E-1,2.940165888E0
2.279923368E0,-2.563675404E0,1.526855469E0,-7.001533508E-1,3.064952514E0
2.297839078E0,-2.597486973E0,1.725125313E0,-9.112572670E-1,3.248597501E0
2.315755399E0,-2.808047771E0,1.638443470E0,-6.375474930E-1,3.313019181E0
2.333671842E0,-2.695828676E0,1.487117290E0,-5.282249451E-1,3.123784833E0
2.351588407E0,-2.469571590E0,1.571382999E0,-8.550996780E-1,3.049462876E0
2.369503934E0,-2.414854527E0,1.411717892E0,-1.166329861E0,3.030642693E0
2.387420133E0,-2.371278524E0,1.691095829E0,-8.883032799E-1,3.044971208E0
2.405336454E0,-2.265823364E0,1.699123383E0,-6.397161484E-1,2.903482829E0
2.423252653E0,-2.380799055E0,1.627521038E0,-2.651786804E-2,2.884047861E0
2.441156705E0,-2.236245632E0,1.564321518E0,-1.176900864E-1,2.731619903E0
2.459084745E0,-2.137316227E0,1.545937061E0,-4.818334579E-1,2.681455861E0
2.477001004E0,-2.587671041E0,1.592229366E0,-1.189149857E0,3.262715611E0
2.494917325E0,-2.500749111E0,1.641220093E0,-7.432165146E-1,3.082161627E0
2.512832852E0,-2.878627777E0,1.462595463E0,-6.269531250E-1,3.289187375E0
2.530749601E0,-2.543064833E0,1.442983150E0,-7.021231651E-1,3.007051056E0
2.548665738E0,-2.834264517E0,1.587767601E0,-1.389806271E0,3.533500074E0
2.566582059E0,-2.429377556E0,1.679901600E0,-1.024993420E0,3.126428666E0
2.584497526E0,-2.746670723E0,1.689896107E0,-4.261798859E-1,3.252933785E0
2.602414090E0,-2.114958286E0,1.828030586E0,3.829479218E-2,2.795748713E0
2.620330289E0,-2.196981430E0,1.608085155E0,-2.389888763E-1,2.733090001E0
2.638246854E0,-2.225672007E0,1.442151070E0,-7.340183258E-1,2.751762797E0
2.656157193E0,-2.297487974E0,1.510837078E0,-9.262294769E-1,2.901547985E0
2.674078641E0,-2.134357452E0,1.728668690E0,-7.375102043E-1,2.843887915E0
2.691994840E0,-2.377990961E0,1.540945530E0,-7.748279572E-1,2.937637231E0
2.709911222E0,-2.474379301E0,1.423745155E0,-9.353599548E-1,3.004080798E0
2.727826871E0,-2.371459723E0,1.595561028E0,-1.028198242E0,3.037569396E0
2.745743375E0,-2.423183441E0,1.697552681E0,-1.037564754E0,3.135290053E0
2.763659452E0,-2.603891134E0,1.831379414E0,-7.670869827E-1,3.274541500E0
2.781573758E0,-2.641156197E0,1.789536953E0,-4.075393677E-1,3.216245777E0
2.799493864E0,-2.587612391E0,1.770223618E0,5.686759949E-3,3.135197263E0
2.817407987E0,-2.333002090E0,1.546539783E0,2.394962311E-2,2.799153022E0
2.835324491E0,-2.569126844E0,1.243019104E0,-5.518641472E-1,2.906899254E0
2.853240751E0,-2.216696739E0,1.400640965E0,-7.739887238E-1,2.733971121E0
2.871156216E0,-2.373951674E0,1.291584969E0,-1.242026806E0,2.974301408E0
2.889072782E0,-2.233652830E0,1.463732243E0,-1.217475891E0,2.934955637E0
2.906988980E0,-2.254189968E0,1.666884899E0,-1.644906044E0,3.250475899E0
2.924905301E0,-2.491968632E0,1.730714321E0,-1.169825077E0,3.251733451E0
2.942821072E0,-2.303333282E0,1.850977898E0,-4.939441681E-1,2.995904576E0
2.960737271E0,-2.299783945E0,1.603252411E0,1.008701324E-2,2.803484659E0
2.978653593E0,-2.393712521E0,1.657781124E0,-7.164478302E-2,2.912598644E0
2.996554227E0,-2.289184332E0,1.437065601E0,-2.153701782E-1,2.711439979E0
3.014485806E0,-2.753586054E0,1.427860737E0,-5.942473412E-1,3.158188142E0
3.032402127E0,-2.492149591E0,1.277611256E0,-4.624252319E-1,2.838474450E0
3.050318327E0,-2.428514957E0,1.366168976E0,-1.017726421E0,2.966457422E0
3.068234647E0,-2.123806477E0,1.519567013E0,-1.639242172E0,3.083302249E0
3.086143521E0,-2.427181244E0,1.670319557E0,-1.667688847E0,3.385611068E0
3.104064054E0,-2.202140093E0,1.911639690E0,-7.187209129E-1,3.003389260E0
3.121974393E0,-2.182250977E0,1.889094353E0,8.731555939E-2,2.887649703E0
3.139899381E0,-2.316959858E0,1.674242496E0,6.024456024E-1,2.921357839E0
3.157815152E0,-2.194764853E0,1.348803997E0,1.142530441E-1,2.578627297E0
3.175731474E0,-2.350090027E0,1.136912823E0,-5.063915253E-1,2.659309361E0
3.193647733E0,-2.631037474E0,1.001218319E0,-1.095541477E0,3.020762725E0
3.211563993E0,-2.634894371E0,1.171307087E0,-1.230659008E0,3.135147562E0
3.229479947E0,-2.441887856E0,1.634777069E0,-1.525527000E0,3.310973421E0
3.247396207E0,-2.670375109E0,1.936002731E0,-1.329851627E0,3.556334510E0
3.265312528E0,-2.597714901E0,1.904608727E0,-5.311551094E-1,3.264625991E0
3.283228788E0,-2.390205145E0,1.755134583E0,1.248359680E-1,2.968023257E0
3.301144498E0,-2.295435429E0,1.359925747E0,6.705284119E-2,2.668879527E0
3.319060819E0,-2.364588737E0,1.151000023E0,-2.706184387E-1,2.643731319E0
3.336978421E0,-2.169331074E0,1.314943314E0,-6.746988297E-1,2.624936520E0
3.354892484E0,-2.050356388E0,1.418004036E0,-9.988913536E-1,2.685606207E0
3.372809293E0,-2.131724358E0,1.477691174E0,-1.095823288E0,2.815785613E0
3.390725553E0,-2.096035004E0,1.423317432E0,-1.019369602E0,2.730990596E0
3.408641629E0,-2.098480940E0,1.543182373E0,-1.128798008E0,2.838876368E0
3.426555509E0,-2.325150490E0,1.566492558E0,-1.040639400E0,2.990510675E0
3.444477078E0,-2.519899607E0,1.893035412E0,-6.516532898E-1,3.218404746E0
3.462390348E0,-2.469821215E0,1.820521355E0,1.478395462E-1,3.071835179E0
3.480306363E0,-2.730504513E0,1.611386776E0,3.888797760E-1,3.194283913E0
3.498206632E0,-2.434620142E0,1.323609352E0,1.039810181E-1,2.773108185E0
3.516137479E0,-2.568687916E0,1.170265675E0,-8.273763657E-1,2.941467492E0
3.534056363E0,-2.475226402E0,1.251649857E0,-1.501331806E0,3.153945196E0
3.551971158E0,-2.395539522E0,1.554978848E0,-1.530111790E0,3.240032547E0
3.569887968E0,-2.142433643E0,1.534191608E0,-1.011457443E0,2.822554157E0
3.587803494E0,-2.041869879E0,1.537921429E0,-6.698765755E-1,2.642568741E0
3.605719693E0,-1.864584565E0,1.515390396E0,-8.648228645E-1,2.553625313E0
3.623636015E0,-1.915504575E0,1.507820129E0,-6.728453636E-1,2.528912850E0
3.641552518E0,-2.038174391E0,1.431325436E0,-3.611440659E-1,2.516599369E0
3.659468290E0,-2.220424652E0,1.344735146E0,-1.232023239E-1,2.598803005E0
3.677381864E0,-2.490015984E0,1.228489876E0,-4.351348877E-1,2.810464258E0
3.695303677E0,-2.423103571E0,1.349798679E0,-9.588599205E-1,2.934757185E0
3.713217313E0,-2.737442255E0,1.507086277E0,-1.254405022E0,3.367258693E0
3.731121304E0,-2.607327938E0,1.656414986E0,-8.529896736E-1,3.204599970E0
3.749045927E0,-2.653925896E0,1.654863358E0,-5.065393448E-1,3.168355646E0
3.766968961E0,-2.357266426E0,1.628982067E0,-4.375295639E-1,2.898572010E0
3.784882169E0,-2.444632530E0,1.524612427E0,-6.344957352E-1,2.950128149E0
3.802797574E0,-2.272058725E0,1.416987896E0,-3.458595276E-1,2.699948955E0
3.820714140E0,-2.282491446E0,1.469114304E0,-3.393106461E-1,2.735543045E0
3.838629178E0,-1.769677162E0,1.354271412E0,-5.823884010E-1,2.303255211E0
3.856547940E0,-2.059619427E0,1.330060959E0,-1.002940655E0,2.648959096E0
3.874462491E0,-1.960181475E0,1.316004753E0,-9.922461510E-1,2.561002216E0
3.892378934E0,-1.758693933E0,1.503201485E0,-7.479653358E-1,2.431475108E0
3.910279630E0,-2.127659082E0,1.460042477E0,-7.680201530E-1,2.692306104E0
3.928210965E0,-2.191859245E0,1.410043716E0,-5.314083099E-1,2.659861843E0
3.946116178E0,-2.384567261E0,1.430621147E0,-5.041704178E-1,2.826132640E0
3.964043668E0,-2.433211327E0,1.493012428E0,-6.497540474E-1,2.927760884E0
3.981959745E0,-2.680961132E0,1.467969894E0,-7.264590263E-1,3.141692365E0
3.999876493E0,-2.598147392E0,1.584939957E0,-1.858654022E-1,3.049090108E0
4.017792264E0,-2.285984755E0,1.628401756E0,-2.651634216E-1,2.819171903E0
4.035708463E0,-2.366347313E0,1.475939274E0,-7.094402313E-1,2.877725106E0
4.053624601E0,-2.435641289E0,1.423487663E0,-1.214473248E0,3.071418383E0
4.071541044E0,-2.240288019E0,1.644665241E0,-1.238408089E0,3.042608874E0
4.089456509E0,-2.160990953E0,1.795610905E0,-1.232356548E0,3.068029186E0
4.107373319E0,-1.944214821E0,1.880377769E0,-7.853789330E-1,2.816489285E0
4.125289517E0,-1.917172551E0,1.613083363E0,-5.214037895E-1,2.559189410E0
4.143201688E0,-2.050562143E0,1.604412079E0,-8.227729797E-1,2.730549139E0
4.161106962E0,-1.983413219E0,1.487014294E0,-1.136374950E0,2.726992398E0
4.179040738E0,-1.927915096E0,1.744032383E0,-1.089177132E0,2.818654359E0
4.196954312E0,-2.230729342E0,1.729941368E0,-1.326559067E0,3.119071896E0
4.214870695E0,-2.429655313E0,1.637588978E0,-7.743654251E-1,3.030604628E0
4.232774686E0,-2.179528952E0,1.934996605E0,-5.919194221E-1,2.974042184E0
4.250701200E0,-2.475570679E0,1.717790604E0,-6.267123222E-1,3.077665199E0
4.268620511E0,-2.331836224E0,1.906670094E0,-5.238180161E-1,3.057325029E0
4.286535734E0,-2.203078032E0,1.729295254E0,-7.790551186E-1,2.907050355E0
4.304451199E0,-2.399571896E0,1.596498013E0,-1.155907631E0,3.105297673E0
4.322367460E0,-2.202146530E0,1.644940376E0,-1.388716221E0,3.079579667E0
4.340285306E0,-2.220057487E0,1.729642391E0,-1.617349148E0,3.245941514E0
4.358198819E0,-2.056777716E0,2.101430893E0,-1.538232327E0,3.318509464E0
4.376115750E0,-1.759712219E0,2.158720016E0,-9.788804054E-1,2.952095197E0
4.394032499E0,-1.997033954E0,2.113306522E0,-6.512966156E-1,2.979663798E0
4.411948697E0,-1.698992729E0,1.885541916E0,-4.736442566E-1,2.581895329E0
4.429865262E0,-2.319142342E0,1.816533089E0,-8.080735207E-1,3.054700718E0
4.447780790E0,-1.893691778E0,1.852389336E0,-1.149919987E0,2.887859203E0
4.465697293E0,-2.281303644E0,1.830507755E0,-1.320701122E0,3.209261039E0
4.483613248E0,-2.201765537E0,2.082668304E0,-1.349941730E0,3.317773564E0
4.501530423E0,-2.158303499E0,2.126235008E0,-9.304060936E-1,3.169354004E0
4.519444913E0,-2.229889154E0,2.215445518E0,-9.809722900E-1,3.292857592E0
4.537362089E0,-2.212681532E0,1.962475777E0,-9.861717224E-1,3.117660245E0
4.555273710E0,-2.219770670E0,1.869324684E0,-1.179301739E0,3.132492489E0
4.573194608E0,-2.519802570E0,2.078878403E0,-1.838698864E0,3.748593592E0
4.591110380E0,-2.363574266E0,2.282025337E0,-9.817585945E-1,3.428990069E0
4.609026883E0,-2.292054892E0,2.285949230E0,-1.905174255E-1,3.242742111E0
4.626943143E0,-2.196009159E0,2.130806446E0,-7.251477242E-1,3.144619462E0
4.644859403E0,-2.014945745E0,1.793774605E0,-1.540918827E0,3.106777192E0
4.662775052E0,-2.078731298E0,1.801715851E0,-1.973051548E0,3.385297067E0
4.680691679E0,-1.889080644E0,2.228832722E0,-2.102285862E0,3.599434237E0
4.698607755E0,-2.120341778E0,2.812275410E0,-1.539443970E0,3.843778086E0
4.716524137E0,-2.222831488E0,2.925340176E0,-4.576373100E-1,3.702435263E0
4.734429715E0,-2.147423744E0,2.358804703E0,3.467159271E-1,3.208675786E0
4.752355192E0,-1.891466141E0,1.643897533E0,-4.381828308E-1,2.544021905E0
4.770274014E0,-2.036604404E0,1.424539089E0,-2.001550674E0,3.191124288E0
4.788183866E0,-1.779287934E0,1.858653545E0,-3.016273499E0,3.964639249E0
4.806104642E0,-2.144372463E0,2.909696102E0,-3.341613770E0,4.922504165E0
4.824009855E0,-2.183173418E0,3.781081200E0,-2.196592808E0,4.887518918E0
4.841937284E0,-2.155507565E0,3.720626354E0,-4.404482841E-1,4.322414605E0
4.859854032E0,-2.377393961E0,2.529696941E0,2.892484665E-1,3.483537474E0
4.877769742E0,-1.667924762E0,1.856332779E0,2.583904266E-1,2.508926067E0
4.895686307E0,-1.641820908E0,1.753483772E0,-1.682780266E0,2.932921863E0
4.913602262E0,-1.889883876E0,2.006632805E0,-3.070399284E0,4.126207465E0
4.931518949E0,-2.135297775E0,2.610373020E0,-3.261294365E0,4.691437395E0
4.949434476E0,-2.337234259E0,3.271174431E0,-2.740253448E0,4.865412120E0
4.967351163E0,-2.043162107E0,3.428561211E0,-2.049495220E0,4.486643961E0
5.039000455E0,-1.595298290E0,1.923917294E0,-1.360633373E0,2.845655911E0
5.056931913E0,-1.755742908E0,2.143634796E0,-2.275847912E0,3.585705930E0
5.074845548E0,-1.870355248E0,2.423365116E0,-2.450737953E0,3.921357387E0
5.092767056E0,-1.914595604E0,2.637075901E0,-2.164596081E0,3.912201660E0
5.110680692E0,-1.686585188E0,2.763242722E0,-1.499698162E0,3.567796871E0
5.128596646E0,-1.708366036E0,2.669968605E0,-1.479913712E0,3.498198316E0
5.146501493E0,-1.870424747E0,2.512113094E0,-1.446919918E0,3.450040316E0
5.164426602E0,-2.008086920E0,2.474979877E0,-1.150667667E0,3.388506242E0
5.182347867E0,-2.151432276E0,2.337730885E0,-1.221832752E0,3.403898030E0
5.200261747E0,-2.077297688E0,2.452520370E0,-1.460752487E0,3.530413528E0
5.218178251E0,-1.991634250E0,2.434626579E0,-1.634568214E0,3.544830999E0
5.236082486E0,-1.909902453E0,2.516944408E0,-1.628923416E0,3.554733187E0
5.254007169E0,-1.792522669E0,2.648670197E0,-1.326783657E0,3.462505769E0
5.271929410E0,-1.853309393E0,2.446602345E0,-1.098165512E0,3.259844510E0
5.289843046E0,-1.745975971E0,2.422243595E0,-1.091266632E0,3.179081469E0
5.307758755E0,-1.768191934E0,2.375602245E0,-1.459706306E0,3.301625546E0
5.325675077E0,-1.841032267E0,2.504019260E0,-1.666103363E0,3.526388050E0
5.343591336E0,-1.835545182E0,2.607259750E0,-1.387428761E0,3.477353604E0
5.361507902E0,-1.944920421E0,2.566397667E0,-1.044438839E0,3.385256994E0
5.379423550E0,-1.977664948E0,2.234933853E0,-1.111046791E0,3.184417206E0
5.397341825E0,-1.890450358E0,2.232403278E0,-1.673254013E0,3.370045392E0
5.415254666E0,-2.143852472E0,2.365434647E0,-2.535838127E0,4.076991476E0
5.433172635E0,-2.024301529E0,2.606607437E0,-2.174377918E0,3.952229541E0
5.451088284E0,-2.180582285E0,2.726942062E0,-1.290207386E0,3.722336257E0
5.469000515E0,-2.182037354E0,2.666565895E0,-6.497211456E-1,3.506279831E0
5.486921415E0,-2.197237968E0,2.576118469E0,-6.477093697E-1,3.447284219E0
5.504837736E0,-2.050773144E0,2.215138435E0,-1.047587872E0,3.195301101E0
5.522753445E0,-2.009696722E0,2.148341179E0,-1.828818321E0,3.463932330E0
5.540669645E0,-2.075469732E0,2.179805756E0,-2.426698208E0,3.866263304E0
5.558585965E0,-1.959647417E0,2.379140377E0,-2.374269485E0,3.890717482E0
5.576501797E0,-1.820139647E0,2.656098843E0,-2.053756237E0,3.819120851E0
5.594418973E0,-1.723957658E0,2.790264130E0,-1.585270405E0,3.642895301E0
5.612334684E0,-1.817353487E0,2.659157276E0,-9.071121216E-1,3.346153541E0
5.630250699E0,-1.700963497E0,2.493252754E0,-7.018804550E-1,3.098745276E0
5.648158780E0,-2.026994228E0,2.229636669E0,-1.262565136E0,3.267117384E0
5.666066434E0,-2.083571911E0,2.116866589E0,-1.443719864E0,3.302532832E0
5.684001920E0,-2.110529661E0,2.212016582E0,-1.674653530E0,3.485945676E0
5.701915799E0,-2.170642614E0,2.314937115E0,-1.952159405E0,3.725795156E0
5.719832303E0,-2.115551949E0,2.557735443E0,-1.791208267E0,3.771736696E0
5.737748074E0,-2.164608479E0,2.677845478E0,-1.597922802E0,3.796016801E0
5.755664335E0,-2.029622078E0,2.738576889E0,-1.166460514E0,3.602748852E0
5.773580777E0,-2.026520967E0,2.708052635E0,-9.062843323E-1,3.501669259E0
5.791497343E0,-1.925090194E0,2.551363945E0,-7.673478127E-1,3.286982339E0
5.809412869E0,-2.058877230E0,2.284665108E0,-8.582658768E-1,3.193006486E0
5.827329374E0,-1.819402099E0,2.186841965E0,-1.125252724E0,3.059198501E0
5.845245572E0,-1.684394956E0,2.164401054E0,-1.910492420E0,3.342424207E0
5.863161954E0,-1.734749675E0,2.167037964E0,-2.380014420E0,3.656484460E0
5.881066128E0,-1.658690095E0,2.288496494E0,-2.262357712E0,3.620322009E0
5.898991483E0,-1.600213885E0,2.621311665E0,-1.862841129E0,3.591954398E0
5.916913602E0,-1.609431624E0,2.763088226E0,-1.304657936E0,3.453557446E0
5.934826932E0,-1.616019845E0,2.716081142E0,-6.463298798E-1,3.225888905E0
5.952742642E0,-1.827266693E0,2.527253151E0,-2.697362900E-1,3.130282691E0
5.970647549E0,-1.814586163E0,2.268567562E0,-5.179796219E-1,2.950834562E0
5.988573820E0,-2.019757271E0,2.010016441E0,-1.233485222E0,3.105007459E0
6.006493375E0,-2.015936613E0,1.902681828E0,-1.655107498E0,3.228556860E0
6.024407681E0,-1.933692932E0,2.032816887E0,-2.057018280E0,3.478913200E0
6.042324246E0,-1.834491134E0,2.160481930E0,-2.367187500E0,3.692778974E0
6.060234708E0,-1.829289675E0,2.382955074E0,-2.617237568E0,3.984307730E0
6.078155606E0,-1.809105754E0,2.618330002E0,-2.060788155E0,3.791485651E0
6.096073575E0,-1.587505102E0,2.829686642E0,-9.907031059E-1,3.392460992E0
6.113989041E0,-1.638589025E0,2.718539238E0,-2.701673508E-1,3.185658484E0
6.131905363E0,-1.590223551E0,2.306751251E0,1.085824966E-1,2.803872757E0
6.149821805E0,-1.563394427E0,1.889949322E0,-4.443330765E-1,2.492697827E0
6.167737515E0,-1.625926137E0,1.668773174E0,-1.518472672E0,2.781042784E0
6.185653836E0,-1.535075903E0,1.653812408E0,-2.371174812E0,3.273228300E0
6.203570097E0,-1.448769331E0,1.822844505E0,-2.981077194E0,3.782659898E0
6.221483670E0,-1.526983023E0,2.282945633E0,-3.179739475E0,4.201697400E0
6.239405240E0,-1.494418740E0,2.645055771E0,-2.416743755E0,3.882042991E0
6.257318936E0,-1.559764624E0,2.780656815E0,-1.090578079E0,3.369611038E0
6.328986600E0,-2.010433435E0,1.614531040E0,-1.459294319E0,2.962784668E0
6.346899931E0,-2.021762133E0,1.824315548E0,-2.457573414E0,3.668148910E0
6.364813565E0,-2.036412001E0,1.967872143E0,-3.042671204E0,4.156602298E0
6.382718228E0,-1.798552155E0,2.352525234E0,-2.776711941E0,4.059469674E0
6.400648221E0,-1.535692096E0,2.644173145E0,-2.259140968E0,3.801804802E0
6.418565702E0,-1.436521292E0,2.610745430E0,-1.244070053E0,3.229132301E0
6.436481473E0,-1.512589455E0,2.421505928E0,-6.251931190E-1,2.922752855E0
6.454397244E0,-1.394302845E0,2.241875648E0,-2.346620560E-1,2.650500543E0
6.472311307E0,-1.397636652E0,1.900975704E0,-4.876990318E-1,2.409345800E0
6.490227689E0,-1.396677732E0,1.721005917E0,-1.007731438E0,2.434767485E0
6.508148770E0,-1.471142530E0,2.066814899E0,-1.992395878E0,3.225775179E0
6.526062284E0,-1.798228502E0,2.153159142E0,-2.474186897E0,3.740497405E0
6.543978543E0,-2.076556444E0,2.407292366E0,-2.025815487E0,3.769757497E0
6.561894804E0,-2.051058769E0,2.559720039E0,-1.389884472E0,3.562413171E0
6.579811368E0,-2.113218069E0,2.404298306E0,-8.631782532E-1,3.315330699E0
6.597726956E0,-2.097490072E0,2.233720303E0,-7.101511955E-1,3.145359393E0
6.615643887E0,-2.054265738E0,2.052548409E0,-9.508533478E-1,3.055664376E0
6.633559782E0,-2.122026443E0,2.003710747E0,-1.100746155E0,3.119213856E0
6.651476346E0,-2.012100935E0,2.266249180E0,-1.149398804E0,3.241227102E0
6.669392179E0,-1.636878252E0,2.397434235E0,-6.801543236E-1,2.981555169E0
6.687308622E0,-1.480373859E0,2.580328941E0,-7.075386047E-1,3.057812140E0
6.705224820E0,-1.398170590E0,2.401969910E0,-8.654913902E-1,2.910913223E0
6.723140530E0,-1.420895576E0,2.082862854E0,-1.094760418E0,2.748774687E0
6.741057767E0,-1.335917234E0,1.870751381E0,-1.426475525E0,2.705405332E0
6.758973416E0,-1.381573439E0,1.736526966E0,-1.912704945E0,2.929626474E0
6.776889677E0,-1.549822569E0,1.741596699E0,-2.296669006E0,3.272582708E0
6.794798429E0,-1.935802579E0,1.996293545E0,-2.141981125E0,3.510071606E0
6.812721829E0,-1.748973131E0,2.215986729E0,-1.904736042E0,3.405513704E0
6.830638517E0,-1.988771319E0,2.422955036E0,-1.405457497E0,3.435292308E0
6.848554715E0,-1.800311446E0,2.442004204E0,-8.767042160E-1,3.158024084E0
6.866471219E0,-2.284497738E0,2.189603806E0,-7.413167953E-1,3.250053127E0
6.884374539E0,-1.875187993E0,1.979176521E0,-6.541080475E-1,2.803805815E0
6.902303006E0,-1.900616288E0,1.666310787E0,-1.174574852E0,2.787213662E0
6.920208707E0,-1.794450402E0,1.500186443E0,-1.919760704E0,3.025903629E0
6.938136320E0,-1.570873499E0,1.763399124E0,-2.639499187E0,3.541775823E0
6.956051724E0,-1.548576117E0,1.946604252E0,-2.736287594E0,3.697921835E0
6.973968351E0,-1.501896381E0,2.230240822E0,-2.187217712E0,3.466062346E0
6.991884488E0,-1.112622619E0,2.444122791E0,-1.181306839E0,2.933794669E0
7.009801114E0,-9.581021667E-1,2.568828583E0,-1.148363113E0,2.972469998E0
7.027716763E0,-1.186138391E0,2.423553944E0,-9.542756081E-1,2.862023749E0
7.045633329E0,-1.445972204E0,2.169538021E0,-4.534025192E-1,2.646375764E0
7.063549588E0,-1.812028885E0,2.097450733E0,-2.084512711E-1,2.779604323E0
7.081466093E0,-1.835180044E0,2.178510189E0,-6.676826477E-1,2.925678136E0
7.099381863E0,-1.709825397E0,2.097147942E0,-1.425446033E0,3.058337583E0
7.117286649E0,-2.087190628E0,1.911344051E0,-1.876016617E0,3.395443881E0
7.135214566E0,-1.719957232E0,2.079641819E0,-2.072163105E0,3.402502448E0
7.153131193E0,-2.086808205E0,2.259816170E0,-2.363170147E0,3.878931650E0
7.171046597E0,-1.541906595E0,2.403699875E0,-1.647305965E0,3.296796321E0
7.188963163E0,-1.502140999E0,2.458405018E0,-1.110327721E0,3.087557361E0
7.206873562E0,-1.449434280E0,2.229899883E0,-4.608211517E-1,2.699197910E0
7.224796171E0,-1.409298420E0,2.223442078E0,-3.213524818E-1,2.651996253E0
7.242711758E0,-1.267222643E0,2.028107643E0,-7.312335968E-1,2.500755168E0
7.260628385E0,-1.467427254E0,2.018022060E0,-1.437727928E0,2.879725226E0
7.278544461E0,-1.278421164E0,2.027062416E0,-1.947935104E0,3.088331893E0
7.296447355E0,-1.538492918E0,2.016098499E0,-2.414669514E0,3.501748489E0
7.314375027E0,-1.506645918E0,2.185215473E0,-2.582189560E0,3.703086754E0
7.332282865E0,-1.427291751E0,2.569084644E0,-2.474295616E0,3.841809007E0
7.350212247E0,-1.476370573E0,2.417030334E0,-1.537589550E0,3.222714280E0
7.368126249E0,-1.584696651E0,2.379095554E0,-1.028079510E0,3.037812800E0
7.386027066E0,-1.893118620E0,2.225052834E0,-8.036961555E-1,3.029964642E0
7.403958341E0,-1.729853630E0,2.163101673E0,-7.089471817E-1,2.859022304E0
7.421874540E0,-1.660320640E0,2.013536453E0,-1.033015251E0,2.806797852E0
7.439791044E0,-1.776599526E0,1.916153431E0,-1.505978584E0,3.015944519E0
7.457706753E0,-1.423771858E0,1.950600624E0,-1.632142544E0,2.914765579E0
7.475623319E0,-1.517698765E0,1.982645988E0,-1.989490032E0,3.192548393E0
7.493539396E0,-1.484861255E0,2.268802643E0,-2.127302170E0,3.446402893E0
7.511455839E0,-1.412787080E0,2.343677521E0,-1.313592434E0,3.035509304E0
7.529371854E0,-1.157647848E0,2.538802624E0,-1.170737267E0,3.025936723E0
7.547285428E0,-1.179591060E0,2.422979355E0,-1.247673035E0,2.969672040E0
7.565207547E0,-1.647050261E0,2.394614220E0,-1.465248585E0,3.254827989E0
7.583120878E0,-1.521107435E0,2.515455246E0,-1.178831577E0,3.167163844E0
7.601036587E0,-1.522744775E0,2.507720947E0,-9.198336601E-1,3.074656072E0
7.618953153E0,-1.797416687E0,2.108765602E0,-7.452502251E-1,2.869319956E0
7.636869657E0,-1.496424437E0,1.970353603E0,-1.119511604E0,2.715674069E0
7.654785978E0,-1.470646977E0,1.829736233E0,-2.009831429E0,3.090333248E0
7.672701626E0,-1.544186234E0,1.765152454E0,-2.501180172E0,3.428728127E0
7.690618436E0,-1.449890137E0,1.742449284E0,-2.089357376E0,3.082811243E0
7.708534452E0,-1.729524732E0,2.103731632E0,-1.961126804E0,3.356033510E0
7.726447904E0,-1.316974401E0,2.369836330E0,-1.815563202E0,3.262945839E0
7.744369779E0,-1.399437189E0,2.438996315E0,-1.284938812E0,3.091633100E0
7.762283231E0,-1.465845585E0,2.398135185E0,-8.511853218E-1,2.936711102E0
7.780199430E0,-1.497308254E0,2.279973507E0,-4.637665749E-1,2.766819589E0
7.798104337E0,-1.415616512E0,1.989606380E0,-8.365898132E-1,2.581159851E0
7.816031766E0,-1.625833988E0,1.739421368E0,-1.831443787E0,3.003849063E0
7.833948026E0,-1.412549019E0,1.804381371E0,-2.563705444E0,3.438556742E0
7.851864530E0,-1.391427517E0,1.820820808E0,-2.901374817E0,3.697219872E0
7.869781034E0,-1.275047183E0,2.120800018E0,-2.697718620E0,3.660768197E0
7.887696805E0,-1.147100687E0,2.463857651E0,-1.935685158E0,3.336661736E0
7.905613309E0,-1.164636850E0,2.610702515E0,-1.106358051E0,3.065318051E0
7.923529325E0,-1.433214903E0,2.446215630E0,-4.862928391E-1,2.876552901E0
7.941444242E0,-1.284894466E0,2.187979698E0,-2.864899635E-1,2.553484962E0
7.959361967E0,-1.641828179E0,2.076636791E0,-9.299817085E-1,2.805866374E0
7.977279813E0,-1.598785281E0,2.091563225E0,-1.303203106E0,2.937531180E0
7.995194547E0,-1.603575945E0,2.326052666E0,-1.530499458E0,3.213161279E0
8.013111173E0,-1.547263145E0,2.336136818E0,-1.572492599E0,3.213143546E0
8.031026578E0,-1.739864707E0,2.310963631E0,-1.392954826E0,3.210608237E0
8.048940213E0,-1.429975152E0,2.165051937E0,-1.211203098E0,2.863440548E0
8.066862576E0,-1.407986045E0,2.147895336E0,-1.576999664E0,3.013769570E0
8.084775968E0,-1.281981826E0,2.216518879E0,-1.511155605E0,2.973217887E0
8.102691861E0,-1.310609698E0,2.436025620E0,-1.111360550E0,2.981114032E0
8.120603300E0,-1.289505363E0,2.278371334E0,-5.215091705E-1,2.669414136E0
8.138522488E0,-1.205450654E0,2.028086662E0,-6.357984543E-1,2.443457891E0
8.156442899E0,-9.632812142E-1,1.873430252E0,-1.487175941E0,2.578632174E0
8.174356961E0,-1.411211371E0,1.655239582E0,-2.411602497E0,3.247639483E0
8.192273466E0,-1.428966403E0,1.787864208E0,-2.662457466E0,3.510994612E0
8.210178068E0,-1.328095555E0,2.093657017E0,-2.580272198E0,3.578413353E0
8.228103055E0,-1.433346987E0,2.257052898E0,-2.335032463E0,3.549809569E0
8.246024869E0,-1.792746305E0,2.370251656E0,-1.736639023E0,3.442084735E0
8.263938261E0,-1.891773343E0,2.367823124E0,-7.460131645E-1,3.121206236E0
8.281843046E0,-1.699666739E0,2.193844318E0,-2.991065979E-1,2.791287279E0
8.299771329E0,-1.362426996E0,1.798982143E0,-5.844678879E-1,2.331125647E0
8.317686735E0,-1.439342022E0,1.554409504E0,-1.391053200E0,2.534348707E0
8.335603543E0,-1.228722692E0,1.628129482E0,-2.146404743E0,2.961016445E0
8.353519559E0,-1.323878527E0,1.860381126E0,-2.665232182E0,3.509577591E0
8.371436124E0,-1.379810333E0,1.964353085E0,-2.613613129E0,3.548736843E0
8.389351773E0,-1.091557980E0,2.284891129E0,-1.925847530E0,3.181369988E0
8.407268582E0,-1.089231014E0,2.177297115E0,-1.128165245E0,2.683245004E0
8.425184660E0,-1.061391711E0,2.477648735E0,-7.452445030E-1,2.796548764E0
8.443101102E0,-1.064288616E0,2.386596203E0,-7.746672630E-1,2.725557019E0
8.461016812E0,-1.612154722E0,2.224363804E0,-1.280537605E0,3.030942715E0
8.478933377E0,-1.371528625E0,2.381989479E0,-1.304814339E0,3.042614847E0
8.496849638E0,-1.607408404E0,2.462768078E0,-1.282031536E0,3.208207170E0
8.514766141E0,-1.604794383E0,2.585657120E0,-1.051009178E0,3.219566437E0
8.532681973E0,-1.312943816E0,2.548624516E0,-5.086069107E-1,2.911698710E0
8.550596524E0,-1.471809268E0,2.054639816E0,-3.854002953E-1,2.556618995E0
8.568516447E0,-1.566548705E0,1.808101654E0,-1.010088921E0,2.596841555E0
8.586431486E0,-1.291909337E0,1.683038712E0,-1.728582859E0,2.736722079E0
8.604346951E0,-1.386534095E0,1.732283592E0,-2.488824368E0,3.334296024E0
8.622262479E0,-1.127812028E0,2.062711716E0,-2.654906273E0,3.546162279E0
8.640177091E0,-9.194068909E-1,2.277051449E0,-1.939075470E0,3.128943274E0
8.658099087E0,-1.154085994E0,2.564344406E0,-1.232232571E0,3.070207456E0
8.676011929E0,-1.119377375E0,2.583702564E0,-1.666760445E-1,2.820692389E0
8.693928617E0,-1.346921325E0,2.374152660E0,-3.038983345E-1,2.746479948E0
8.711844693E0,-1.366063833E0,2.046726227E0,-1.025518417E0,2.665878217E0
8.729758390E0,-1.417516828E0,1.796806335E0,-1.868674278E0,2.954625276E0
8.747680142E0,-1.532897830E0,1.558235645E0,-2.389534473E0,3.238479440E0
8.765593534E0,-1.593260050E0,1.724956036E0,-2.692402840E0,3.572531870E0
8.783509793E0,-1.765463233E0,1.954335213E0,-2.433786869E0,3.586029151E0
8.801426298E0,-1.445187926E0,2.209976673E0,-1.256320000E0,2.924193048E0
8.819342068E0,-1.115352631E0,2.135682583E0,-9.513230324E-1,2.590399023E0
8.837258817E0,-1.181443214E0,1.883724213E0,-1.309281349E0,2.580395828E0
8.855172635E0,-1.216014624E0,1.650133133E0,-1.525362015E0,2.555065596E0
8.873088407E0,-1.058219790E0,1.719797611E0,-1.740807533E0,2.666072733E0
8.891010282E0,-1.234496236E0,2.019034863E0,-2.245444298E0,3.262284909E0
8.908923856E0,-1.312838912E0,2.222893238E0,-1.909825325E0,3.211266593E0
8.926839933E0,-1.262193441E0,2.341160297E0,-1.826734066E0,3.226626903E0
8.944752714E0,-1.302996755E0,2.124272823E0,-1.421149731E0,2.868798028E0
8.962672085E0,-1.040435433E0,2.432406425E0,-7.751622200E-1,2.756806736E0
8.980588895E0,-1.170924544E0,2.352511883E0,-5.958323479E-1,2.694511576E0
8.998505155E0,-1.367740870E0,2.353744984E0,-8.468627930E-1,2.850965998E0
9.016421720E0,-1.512744784E0,2.024407387E0,-8.756003380E-1,2.674565012E0
9.034331326E0,-1.538275123E0,1.815379143E0,-7.386770248E-1,2.491492631E0
9.052239469E0,-1.030800462E0,2.139430523E0,-1.286019802E0,2.700659084E0
9.070173123E0,-1.396071076E0,2.236402512E0,-2.049258709E0,3.339157364E0
9.088086759E0,-1.217890978E0,2.256628513E0,-1.816380501E0,3.142430398E0
9.105992215E0,-9.890886545E-1,2.303206921E0,-7.645492554E-1,2.620609481E0
9.123918974E0,-5.989379883E-1,2.389027119E0,-8.156642914E-1,2.594510652E0
9.141832059E0,-1.346529841E0,2.130318642E0,-1.471191406E0,2.918185101E0
9.159754666E0,-1.422940612E0,1.889703274E0,-1.798878193E0,2.971817828E0
9.177667264E0,-1.062917709E0,1.613255978E0,-1.489889622E0,2.439704898E0
9.195584013E0,-1.067780375E0,1.627817154E0,-1.932777882E0,2.743277958E0
9.213500028E0,-1.152076960E0,1.763336182E0,-2.466817379E0,3.243736085E0
9.231416776E0,-1.378382564E0,2.061290264E0,-2.467840195E0,3.498441263E0
9.249332853E0,-1.419875383E0,1.910869598E0,-1.387084484E0,2.755262618E0
9.267248990E0,-1.164419413E0,1.966731548E0,-6.018757820E-1,2.363505872E0
9.285162381E0,-1.366207361E0,1.592816353E0,-1.475617409E0,2.565352456E0
9.303084805E0,-1.329040289E0,1.337504387E0,-1.899896145E0,2.676727748E0
9.320997526E0,-1.293944001E0,1.820167542E0,-2.415382385E0,3.289585540E0
9.338914090E0,-9.510638118E-1,2.202359676E0,-2.249444485E0,3.288603200E0
9.356830350E0,-1.060023189E0,2.287315369E0,-1.646292210E0,3.010936531E0
9.374743924E0,-1.224507689E0,2.035380363E0,-1.125736713E0,2.628588110E0
9.392665555E0,-1.345640182E0,1.919071674E0,-1.021342278E0,2.556701711E0
9.410579373E0,-8.145751357E-1,2.011506557E0,-8.465795517E-1,2.329460929E0
9.428495390E0,-1.052985311E0,2.138023853E0,-1.776494503E0,2.972516910E0
9.446402189E0,-1.616213918E0,1.842329025E0,-1.887979984E0,3.093669680E0
9.464327298E0,-1.157321811E0,2.063449383E0,-1.051917076E0,2.589159451E0
9.482244718E0,-8.301702142E-1,2.038970947E0,-9.569587708E-1,2.400490616E0
9.500160734E0,-1.283896565E0,2.449116230E0,-1.429915428E0,3.113072249E0
9.518077176E0,-1.144689083E0,2.548773766E0,-7.686800957E-1,2.897831930E0
9.535992947E0,-1.154885292E0,2.251093388E0,-2.538537979E-2,2.530182977E0
9.553909452E0,-9.380799532E-1,1.854984283E0,-9.857082367E-2,2.081027846E0
9.571825711E0,-1.316348076E0,1.659006596E0,-1.604773521E0,2.657136277E0
9.589742277E0,-1.513220787E0,1.815594673E0,-2.251995087E0,3.264613766E0
9.607657986E0,-1.146086216E0,1.906901360E0,-2.191330433E0,3.122773683E0
9.625574430E0,-1.176251292E0,1.988603592E0,-2.063167572E0,3.097542861E0
9.643490750E0,-1.057376504E0,2.037673950E0,-1.901870728E0,2.981152875E0
9.661407133E0,-7.214755416E-1,2.341367722E0,-1.665007114E0,2.962225254E0
9.679321439E0,-9.985169172E-1,2.252903461E0,-1.147706985E0,2.718426266E0
9.697236844E0,-1.000413299E0,2.207981586E0,-1.766738892E-1,2.430477961E0
9.715158963E0,-1.206844330E0,2.036171913E0,6.834459305E-2,2.367940092E0
9.733061124E0,-1.197927356E0,1.440939426E0,-5.943517685E-1,1.965856151E0
9.750988064E0,-1.032967329E0,1.423078060E0,-2.062077522E0,2.710043611E0
9.768904813E0,-1.184839249E0,1.437117577E0,-3.271344185E0,3.764418116E0
9.786819242E0,-1.512368441E0,1.542016029E0,-3.334934235E0,3.973267935E0
9.804739408E0,-1.315384984E0,2.094029427E0,-2.246486187E0,3.340942544E0
9.822653348E0,-1.055910587E0,2.355348587E0,-1.097501755E0,2.804839432E0
9.840569852E0,-8.945025206E-1,2.653350830E0,-4.759902954E-1,2.840241565E0
9.858491483E0,-9.513808489E-1,2.420986652E0,2.948393822E-1,2.617867864E0
9.876401090E0,-1.217566729E0,1.591271400E0,4.877500534E-1,2.062162342E0
9.894320462E0,-1.248088717E0,1.219401360E0,-6.923823357E-1,1.877247565E0
9.912234830E0,-1.180632114E0,1.433173656E0,-2.223578453E0,2.896925967E0
9.930151456E0,-1.151707172E0,1.482974052E0,-3.218932152E0,3.726548758E0
9.948067899E0,-1.197037220E0,1.915616035E0,-3.042932034E0,3.789712161E0
9.965983671E0,-7.476832867E-1,2.541674614E0,-1.906657219E0,3.264120385E0
9.983900174E0,-7.005413175E-1,2.673864365E0,-6.435003281E-1,2.838027739E0
1.000179837E1,-1.060667872E0,2.281761169E0,5.250673294E-1,2.570436942E0
1.001973318E1,-1.160304546E0,1.892580032E0,7.528705597E-1,2.344137346E0
1.003764895E1,-1.345865250E0,1.647797585E0,-3.345561028E-1,2.153721880E0
1.005556521E1,-1.370070457E0,1.550990582E0,-1.379384041E0,2.487039440E0
1.007348147E1,-1.402716160E0,1.711144447E0,-2.258673668E0,3.161840395E0
1.009139779E1,-1.330807924E0,1.621278286E0,-2.465246201E0,3.236824345E0
1.010931100E1,-9.757594466E-1,1.691503048E0,-2.240440369E0,2.972013140E0
1.012723349E1,-5.635621548E-1,1.785251617E0,-1.751338005E0,2.563573765E0
1.014514676E1,-8.024963737E-1,1.925113678E0,-1.388422966E0,2.505550126E0
1.016306326E1,-8.829469681E-1,2.111270905E0,-8.026747704E-1,2.425148855E0
1.018097903E1,-8.778356314E-1,1.777923107E0,-3.146281242E-1,2.007634635E0
1.019889358E1,-1.115322828E0,1.365287304E0,-6.199564934E-1,1.868769779E0
1.021681405E1,-1.201522946E0,1.406060219E0,-1.833368778E0,2.604208864E0
1.023472830E1,-1.167517900E0,1.419699669E0,-2.690495014E0,3.258436530E0
1.025264456E1,-1.383736491E0,1.866343975E0,-2.919884682E0,3.731446511E0
1.027056613E1,-1.280172229E0,2.045909405E0,-1.914078236E0,3.080305459E0
1.028847628E1,-1.067365408E0,2.134320736E0,-5.432505608E-1,2.447389444E0
1.030639450E1,-1.001250267E0,1.937172890E0,1.153264046E-1,2.183676048E0
1.032430636E1,-1.008932710E0,1.701091290E0,-3.346586227E-1,2.005904579E0
1.034222879E1,-9.378464222E-1,1.374974251E0,-1.246619225E0,2.079463775E0
1.036014236E1,-1.130515337E0,1.631089687E0,-2.256426334E0,3.004992229E0
1.037805893E1,-1.321717024E0,1.656507492E0,-2.397665977E0,3.199961734E0
1.039597439E1,-1.008520365E0,1.764750481E0,-1.774434090E0,2.698161212E0
1.041389114E1,-6.559770703E-1,2.097147942E0,-1.329272747E0,2.568131897E0
1.043180740E1,-5.611130595E-1,2.123508930E0,-3.614821434E-1,2.225939663E0
1.044972421E1,-9.112554789E-1,2.248371124E0,-8.831882477E-2,2.427624245E0
1.046763962E1,-1.149304867E0,1.759593487E0,6.175665855E-1,2.190538610E0
1.048555624E1,-1.302958965E0,1.328397274E0,-9.499549866E-2,1.863160092E0
1.050345834E1,-1.215542674E0,1.363376617E0,-1.956896305E0,2.676898007E0
1.052138888E1,-1.181769252E0,1.394515991E0,-3.485118151E0,3.935390951E0
1.053930789E1,-1.364107251E0,1.666571140E0,-3.702846527E0,4.283610669E0
1.055722146E1,-9.513719678E-1,2.654214382E0,-2.127693653E0,3.532285788E0
1.057513772E1,-6.267849803E-1,3.417607784E0,-2.554135323E-1,3.483983130E0
1.059305423E1,-1.052497268E0,2.751052856E0,2.030752182E0,3.577708309E0
1.061096707E1,-1.091226697E0,1.415682793E0,3.113441467E0,3.590048919E0
1.062888998E1,-6.182217002E-1,4.961833954E-1,1.353171349E0,1.568269343E0
1.064680301E1,-1.106532812E0,2.781624794E-1,-2.004425526E0,2.306406494E0
1.066471976E1,-1.426594019E0,2.126455307E-1,-4.199589252E0,4.440375942E0
1.068262918E1,-1.651792645E0,9.155154228E-1,-5.201844215E0,5.534055536E0
1.070054886E1,-9.919707775E-1,2.217173576E0,-5.064305305E0,5.616676323E0
1.071847098E1,-2.715213299E-1,3.202698231E0,-2.913066864E0,4.337851812E0
1.073638486E1,-6.728409529E-1,3.160238743E0,1.503829956E-1,3.234569354E0
1.075428390E1,-1.074514389E0,2.344396114E0,3.148464680E0,4.069840802E0
1.077221713E1,-8.513736725E-1,9.454793930E-1,3.950694084E0,4.150512277E0
1.079013333E1,-1.003607750E0,-5.706739426E-2,5.504870415E-1,1.146089519E0
1.080804989E1,-1.053054214E0,-1.937408447E-1,-3.124087334E0,3.302480940E0
1.082595413E1,-1.655685425E0,3.628902435E-1,-5.650431633E0,5.899183095E0
1.084388235E1,-9.211287498E-1,1.394438744E0,-6.458502769E0,6.671221448E0
1.086179867E1,-5.879524350E-1,2.982649803E0,-4.336178780E0,5.295690165E0
1.087971512E1,-7.986271381E-1,3.551402569E0,-1.217019558E0,3.838150872E0
1.089763107E1,-7.128055692E-1,2.870619297E0,2.148829460E0,3.655956096E0
1.091553598E1,-9.284256697E-1,1.558360100E0,3.421730042E0,3.872815113E0
1.093346383E1,-8.702820539E-1,6.226935387E-1,1.318277836E0,1.697938323E0
1.095138040E1,-8.526173830E-1,2.180027962E-1,-1.405594349E0,1.658365790E0
1.096929623E1,-8.936822414E-1,6.434569359E-1,-3.414094687E0,3.587303626E0
1.098721292E1,-1.321710348E0,1.451218605E0,-4.113701820E0,4.558014519E0
1.100512893E1,-1.396276236E0,2.204645634E0,-2.798156738E0,3.826190119E0
1.102304330E1,-1.211421251E0,2.859094620E0,-8.612751961E-1,3.222383971E0
1.104096390E1,-8.107099533E-1,2.712174892E0,5.107445717E-1,2.876456725E0
1.105887771E1,-7.616611719E-1,2.248824596E0,1.075700760E0,2.606620788E0
1.107679446E1,-7.259685993E-1,1.892776012E0,9.689130783E-1,2.246869821E0
1.109469516E1,-7.821940184E-1,1.598335743E0,4.202036858E-1,1.828407987E0
1.111262295E1,-9.567077160E-1,1.491347313E0,-1.060323715E-1,1.775006852E0
1.113054678E1,-8.875330687E-1,1.496306896E0,-7.575192451E-1,1.897494317E0
1.114845950E1,-9.155446887E-1,1.346194267E0,-1.476675510E0,2.197960792E0
1.116637631E1,-9.110065699E-1,1.105667114E0,-2.252482891E0,2.669477835E0
1.118429202E1,-8.107815981E-1,1.163371563E0,-2.690142155E0,3.040997370E0
1.120220852E1,-6.603285074E-1,1.630365372E0,-2.303597450E0,2.898393727E0
1.122012478E1,-7.908601761E-1,2.007712364E0,-1.319909573E0,2.529531584E0
1.123804153E1,-9.814416170E-1,1.678796291E0,2.318811417E-1,1.958405857E0
1.125595712E1,-1.008659124E0,1.143709660E0,5.798716545E-1,1.631476678E0
1.127387381E1,-1.092911482E0,5.485267639E-1,-6.146807671E-1,1.368637850E0
1.129179007E1,-1.064764857E0,4.367032051E-1,-2.412211895E0,2.672676583E0
1.130970657E1,-1.186668515E0,9.278998375E-1,-3.722337246E0,4.015591469E0
1.132762820E1,-1.224242449E0,1.611427784E0,-3.650328875E0,4.173771672E0
1.134553885E1,-9.172276855E-1,1.988470554E0,-1.622004032E0,2.725108962E0
1.136345541E1,-8.330405951E-1,2.149311066E0,-4.230923653E-1,2.343608722E0
1.138137192E1,-8.027350307E-1,2.085639477E0,1.671838760E-1,2.241032352E0
1.139928756E1,-8.676422834E-1,1.556475639E0,4.327716827E-1,1.833769581E0
1.141719003E1,-6.726154685E-1,8.531045914E-1,-3.319835663E-2,1.086876784E0
1.143512033E1,-4.379820228E-1,6.235561371E-1,-1.278217793E0,1.488116673E0
1.145303702E1,-4.042897224E-1,7.790212631E-1,-2.246548176E0,2.411908583E0
1.147095285E1,-5.906431675E-1,1.135010719E0,-2.606150627E0,2.903296364E0
1.148886990E1,-9.016693830E-1,1.596737385E0,-2.080280304E0,2.773110906E0
1.150678158E1,-1.074861169E0,1.959228516E0,-1.129297256E0,2.503840091E0
1.152469894E1,-1.149103522E0,1.925751209E0,-4.003562927E-1,2.277990734E0
1.154262173E1,-9.608985186E-1,2.037993431E0,1.086068153E-1,2.255778941E0
1.156053488E1,-8.578167558E-1,1.724165440E0,3.677148819E-1,1.960563767E0
1.157845150E1,-9.075011611E-1,1.449388027E0,1.610078812E-1,1.717616822E0
1.159635605E1,-1.156373024E0,1.187477112E0,-3.230075836E-1,1.688678288E0
1.161428341E1,-9.774519801E-1,1.231213570E0,-1.590709686E0,2.236438359E0
1.163220022E1,-8.499176502E-1,1.394172668E0,-2.541399956E0,3.020726929E0
1.165011648E1,-8.408790231E-1,1.503855228E0,-2.675065517E0,3.181922941E0
1.166803305E1,-5.390459299E-1,1.919825554E0,-1.462153435E0,2.472689495E0
1.168594876E1,-6.661212444E-1,1.879056454E0,-2.910628319E-1,2.014767540E0
1.170386526E1,-9.153007269E-1,1.407238960E0,7.099514008E-1,1.822670542E0
1.172178177E1,-7.171854973E-1,1.337783337E0,1.490335464E-1,1.525198443E0
1.173969833E1,-5.504916310E-1,1.233752251E0,-1.208472252E0,1.812619882E0
1.175761111E1,-6.976571083E-1,9.680700302E-1,-1.829844952E0,2.184540586E0
1.177553348E1,-8.891597986E-1,1.416411877E0,-1.591564655E0,2.308658876E0
1.179344705E1,-8.731106520E-1,1.888560295E0,-1.008320808E0,2.312075486E0
1.181136361E1,-1.213024855E0,1.847029686E0,-9.101486206E-2,2.211612910E0
1.182927932E1,-1.055915117E0,1.696776390E0,9.568357468E-2,2.000790394E0
1.184719583E1,-1.007980466E0,1.612811565E0,-1.124293327E0,2.209348603E0
1.186511239E1,-1.102270961E0,1.313421726E0,-1.143346310E0,2.060902396E0
1.188302884E1,-7.106398344E-1,1.581895828E0,-8.635358810E-1,1.937291306E0
1.190094485E1,-5.092486739E-1,1.782275200E0,-8.561344147E-1,2.041765225E0
1.191886526E1,-8.755901456E-1,1.356742859E0,-2.041125298E-1,1.627596760E0
1.193677572E1,-9.131497145E-1,1.121951580E0,-2.737340927E-1,1.472259523E0
1.195469607E1,-7.005587220E-1,1.015658379E0,-1.390526295E0,1.859007219E0
1.197260989E1,-7.190043926E-1,8.216962814E-1,-2.101547718E0,2.368259890E0
1.199052664E1,-8.592715859E-1,1.066556454E0,-2.195955276E0,2.588070691E0
1.200843124E1,-9.849300385E-1,1.655526638E0,-1.579495430E0,2.491116505E0
1.202635946E1,-9.780523181E-1,1.757495880E0,-2.817993164E-1,2.030957646E0
1.204427505E1,-9.864653349E-1,1.614601612E0,5.423450470E-1,1.968296312E0
1.206219180E1,-1.010294318E0,1.226969719E0,-3.825488091E-1,1.634776098E0
1.208010788E1,-1.002581835E0,9.339690208E-1,-1.883277893E0,2.328992076E0
1.209802450E1,-6.647069454E-1,8.409595490E-1,-2.240898132E0,2.484083881E0
1.211594046E1,-6.796033382E-1,1.210429192E0,-1.977226257E0,2.415869036E0
1.213385720E1,-5.463246107E-1,1.526657581E0,-9.310040474E-1,1.869738615E0
1.215177353E1,-5.689100027E-1,1.588013649E0,-3.953886032E-1,1.732564021E0
1.216968710E1,-7.980967164E-1,1.337099552E0,-6.530990601E-1,1.688588749E0
1.218760861E1,-7.248879671E-1,1.147593021E0,-1.123471260E0,1.761993184E0
1.220552225E1,-7.541818619E-1,7.929825783E-1,-1.241094589E0,1.654668375E0
1.222343881E1,-6.552302837E-1,7.567162514E-1,-1.582491875E0,1.872492121E0
1.224135531E1,-5.183736682E-1,1.069439888E0,-2.030362129E0,2.352612019E0
1.225927096E1,-1.159378171E0,1.634039402E0,-1.993083477E0,2.826061616E0
1.227718777E1,-1.110420227E0,2.023869991E0,-3.988242149E-1,2.342678718E0
1.229510403E1,-9.665569067E-1,2.028330326E0,5.435829163E-1,2.311674405E0
1.231302060E1,-1.002429724E0,1.509692192E0,7.952737808E-1,1.979013960E0
1.233091977E1,-9.502006769E-1,7.634825706E-1,7.204675674E-2,1.221055976E0
1.234884915E1,-7.168024778E-1,7.684454918E-1,-1.217101574E0,1.607995805E0
1.236677322E1,-6.651394367E-1,1.472881317E0,-2.200818062E0,2.730456003E0
1.238468582E1,-9.300042391E-1,1.771632195E0,-1.333874702E0,2.404747438E0
1.240260159E1,-9.351966977E-1,2.031985283E0,4.187345505E-2,2.237255113E0
1.242050662E1,-4.101744890E-1,1.426181793E0,6.938581467E-1,1.638193135E0
1.243843173E1,-3.358929753E-1,1.021915913E0,-6.000699997E-1,1.231754938E0
1.245635403E1,-5.820862055E-1,1.022158146E0,-1.521974564E0,1.923548335E0
1.247426687E1,-8.384678960E-1,1.329295158E0,-1.149299145E0,1.947034297E0
1.249218344E1,-9.928404689E-1,1.465736389E0,-4.981694221E-1,1.839099816E0
1.251009988E1,-7.648904324E-1,1.720374107E0,-6.349382401E-1,1.986930047E0
1.252801669E1,-8.553127050E-1,1.056820393E0,-7.636861801E-1,1.559373511E0
1.254592093E1,-7.297621369E-1,9.538321495E-1,-1.172059536E0,1.678115640E0
1.256385452E1,-7.956511974E-1,1.080613613E0,-1.531940460E0,2.036572656E0
1.258176516E1,-8.717630506E-1,1.278227806E0,-1.270518303E0,2.002012462E0
1.259968197E1,-6.860693693E-1,1.313723564E0,-3.272695541E-1,1.517783299E0
1.261759762E1,-7.121321559E-1,1.054735661E0,-6.738710403E-1,1.440035312E0
1.263551425E1,-5.495681763E-1,8.080282211E-1,-1.041088581E0,1.427865617E0
1.265341873E1,-6.742018461E-1,1.135106087E0,-1.822835922E0,2.250720942E0
1.267134573E1,-7.777048349E-1,1.224346161E0,-1.287506104E0,1.939463920E0
1.268926443E1,-6.914622784E-1,1.320431232E0,-5.763311386E-1,1.598066426E0
1.270717953E1,-6.528693438E-1,1.445509434E0,-8.671264648E-1,1.807662637E0
1.272509573E1,-7.676560879E-1,8.786249161E-1,-9.907708168E-1,1.530654900E0
1.274299643E1,-6.057796478E-1,5.885105133E-1,-9.289770126E-1,1.255512603E0
1.276092410E1,-7.102922201E-1,8.834047318E-1,-1.931911945E0,2.239911320E0
1.277884890E1,-7.631004453E-1,1.343949318E0,-2.162937164E0,2.658348968E0
1.279676120E1,-9.068537951E-1,1.633488655E0,-7.130031586E-1,1.999760610E0
1.281467764E1,-9.938286543E-1,1.387023449E0,4.799704552E-1,1.772540854E0
1.283259353E1,-5.872769356E-1,1.478202343E0,2.960157394E-1,1.617900394E0
1.285051034E1,-5.896174908E-1,1.584959984E0,-7.877001762E-1,1.865534375E0
1.286842654E1,-1.087593079E0,1.469303131E0,-3.889455795E-1,1.868954001E0
1.288633163E1,-8.991339803E-1,1.381486893E0,7.040686607E-1,1.792389642E0
1.290425876E1,-5.292556882E-1,1.248694897E0,2.046742439E-1,1.371583783E0
1.292217532E1,-6.510270238E-1,6.859307289E-1,-9.868583679E-1,1.366830856E0
1.294009183E1,-7.278839946E-1,3.961806297E-1,-1.932384014E0,2.102589399E0
1.295800839E1,-7.264937758E-1,8.416295052E-1,-2.783378601E0,2.997220357E0
1.297591238E1,-9.218396544E-1,1.622591496E0,-2.924049854E0,3.468812341E0
1.299383798E1,-8.718791604E-1,2.381301403E0,-7.002134323E-1,2.630792370E0
1.301176004E1,-9.342508316E-1,2.373793125E0,1.684931755E0,3.057239512E0
1.302967392E1,-1.010223985E0,2.025902748E0,2.374409676E0,3.280648678E0
1.304758932E1,-5.514538884E-1,1.085290909E0,2.015191078E0,2.354347644E0
1.306550912E1,-6.319925785E-1,1.583838463E-1,4.632902145E-2,6.531817820E-1
1.308341818E1,-6.303583384E-1,-2.314186096E-2,-1.891030312E0,1.993460012E0
1.310134555E1,-8.890821934E-1,5.179643631E-2,-3.041957378E0,3.169645833E0
1.311925277E1,-9.697073698E-1,7.637825012E-1,-3.413176060E0,3.629527091E0
1.313717142E1,-7.936703563E-1,1.559192181E0,-2.929559708E0,3.412229912E0
1.315507602E1,-6.826533675E-1,1.932711601E0,-1.545753479E0,2.567244354E0
1.317300168E1,-3.432950377E-1,1.672296524E0,3.351955414E-1,1.739765271E0
1.319092294E1,-5.388591290E-1,8.279848099E-1,1.327721119E0,1.654923375E0
1.320883670E1,-8.463380337E-1,6.255798340E-1,2.344441414E-1,1.078240350E0
1.322675320E1,-7.268793583E-1,7.316441536E-1,-1.216080189E0,1.594524316E0
1.324466977E1,-7.111454606E-1,6.787652969E-1,-1.436778069E0,1.740913959E0
1.326258572E1,-6.543561816E-1,8.742809296E-1,-1.264219284E0,1.670568632E0
1.328050223E1,-9.504028559E-1,7.569446564E-1,-1.436201096E0,1.881197594E0
1.329841855E1,-8.938999176E-1,7.881388664E-1,-2.035367489E0,2.358588720E0
1.331633383E1,-6.764048934E-1,1.017655849E0,-2.852879524E0,3.103557408E0
1.333425216E1,-7.433062792E-1,1.591831684E0,-2.441090107E0,3.007549375E0
1.335216757E1,-6.055524945E-1,1.997885227E0,-1.655845642E-1,2.094196135E0
1.337008377E1,-4.178439975E-1,1.859834194E0,1.647209167E0,2.519300474E0
1.338800033E1,-5.104259849E-1,1.618042469E0,1.749035835E0,2.436744236E0
1.340591598E1,-8.831584454E-1,8.059263229E-1,7.520380020E-1,1.412461410E0
1.342383285E1,-6.324150562E-1,6.906247139E-1,-3.510379791E-1,1.000069478E0
1.344174905E1,-7.038264275E-1,8.744616508E-1,-9.395828247E-1,1.463854741E0
1.345966556E1,-9.038932323E-1,9.389944077E-1,-1.039056301E0,1.666844765E0
1.347758358E1,-1.047711134E0,1.339955330E0,-1.249348640E0,2.110462255E0
1.349549624E1,-9.214063883E-1,1.393004417E0,-1.429689884E0,2.198514090E0
1.351341672E1,-7.430604696E-1,1.623435020E0,-1.173929214E0,2.136770911E0
1.353133108E1,-4.497635067E-1,1.621321201E0,4.593763351E-1,1.744131952E0
1.354924685E1,-7.463921309E-1,1.682658195E0,1.062663555E0,2.125486685E0
1.356716360E1,-5.592528582E-1,1.748476028E0,1.150050163E0,2.166228880E0
1.358507992E1,-4.998772442E-1,1.469075203E0,3.095769882E-1,1.582370729E0
1.360299643E1,-3.135514259E-1,8.959412575E-1,-3.700923920E-1,1.018819715E0
1.362091208E1,-8.382073641E-1,4.100589752E-1,-8.186807632E-1,1.241361406E0
1.363882889E1,-7.187132835E-1,3.365135193E-2,-1.093082905E0,1.308629602E0
1.365674521E1,-7.704458833E-1,8.520603180E-2,-2.704731464E0,2.813613197E0
1.367464901E1,-1.330945015E0,1.104969978E-1,-3.446938753E0,3.696621564E0
1.369258035E1,-8.687385321E-1,8.766231537E-1,-3.815661192E0,4.010292399E0
1.371048440E1,-2.195836306E-1,1.690614700E0,-1.513681889E0,2.279830673E0
1.372840750E1,-3.446510434E-1,2.175386429E0,1.742196083E-1,2.209398771E0
1.374633017E1,-3.394883275E-1,1.994741440E0,1.466318607E0,2.498866942E0
1.376424295E1,-5.773527622E-1,1.176747799E0,1.500496864E0,1.992376077E0
1.378215945E1,-4.991897047E-1,2.768487930E-1,2.556772232E-1,6.254649933E-1
1.380007571E1,-7.506620884E-1,-3.768677711E-1,-1.447175980E0,1.673272603E0
1.381798929E1,-9.620525837E-1,-2.508106232E-1,-2.965341568E0,3.127571223E0
1.383591146E1,-1.012409210E0,4.088521004E-1,-3.756273985E0,3.911742156E0
1.385382474E1,-8.061751723E-1,1.371166706E0,-3.228593111E0,3.599142956E0
1.387174130E1,-4.416856468E-1,2.490431309E0,-1.122830391E0,2.767324051E0
1.388964627E1,-2.994161248E-1,2.836629391E0,1.056726456E0,3.041839430E0
1.390757089E1,-3.904493451E-1,2.280189037E0,3.230284691E0,3.973216823E0
1.392549295E1,-5.982461572E-1,9.188075066E-1,3.364199162E0,3.538352964E0
1.394340652E1,-5.973433256E-1,-1.392784119E-1,9.797830582E-1,1.155937873E0
1.396132309E1,-6.486449242E-1,-6.717438698E-1,-9.863185883E-1,1.358235775E0
1.397923904E1,-7.145800591E-1,-1.167192459E-1,-2.338027477E0,2.447574417E0
1.399715554E1,-8.038598895E-1,1.198553085E0,-3.056446552E0,3.380027477E0
1.401507187E1,-8.138767481E-1,2.233790874E0,-2.081383228E0,3.159805876E0
1.403298861E1,-6.654958725E-1,2.557379246E0,3.266329765E-1,2.662660787E0
1.405090158E1,-5.344282985E-1,2.192605019E0,1.356464386E0,2.633082985E0
1.406882376E1,-7.403863072E-1,1.556861877E0,1.184332371E0,2.091562563E0
1.408673739E1,-7.478931546E-1,4.595518112E-1,6.895027161E-1,1.116219527E0
1.410465390E1,-5.006518364E-1,-3.426709175E-1,-4.929308891E-1,7.817010173E-1
1.412255783E1,-8.114157319E-1,-3.053092957E-1,-1.752556324E0,1.955265436E0
1.414048544E1,-9.932023287E-1,2.360754013E-1,-2.441874504E0,2.646683501E0
1.415840378E1,-6.329041719E-1,1.236972809E0,-2.643117428E0,2.986090949E0
1.417631918E1,-3.479420245E-1,1.755617619E0,-1.371917248E0,2.255086209E0
1.419423520E1,-3.671220541E-1,1.910276890E0,3.348107338E-1,1.973837538E0
1.421214017E1,-5.413693190E-1,1.346164703E0,1.402176380E0,2.017755870E0
1.423006527E1,-5.403832197E-1,7.745857239E-1,7.082419395E-1,1.180509938E0
1.424798733E1,-2.610045075E-1,1.085615158E-1,-7.564992905E-1,8.075890862E-1
1.426590042E1,-3.500967324E-1,-2.635269165E-1,-1.872999191E0,1.923574830E0
1.428381692E1,-7.036638260E-1,-1.179723740E-1,-2.342402458E0,2.448654638E0
1.430173404E1,-1.027665854E0,7.359027863E-1,-2.909530640E0,3.172226121E0
1.431964938E1,-7.615385652E-1,1.605124950E0,-2.065292835E0,2.724298366E0
1.433756564E1,-5.324181914E-1,1.945576191E0,-3.508443832E-1,2.047395327E0
1.435548227E1,-4.768376350E-1,2.074306011E0,1.182326794E0,2.434751775E0
1.437339871E1,-5.623170733E-1,1.502527714E0,2.114171505E0,2.653961412E0
1.439131534E1,-8.371267319E-1,1.212149620E0,1.342897415E0,1.993354292E0
1.440923098E1,-6.875520945E-1,5.801558495E-1,3.925004005E-1,9.815117201E-1
1.442714767E1,-3.727241755E-1,-1.617102623E-1,-3.498744965E-2,4.077960784E-1
1.444505234E1,-2.367054820E-1,-3.810501099E-1,-9.447865486E-1,1.045872982E0
1.446297775E1,-6.124262810E-1,2.372822762E-1,-3.120334148E0,3.188707266E0
1.448089926E1,-5.425181985E-1,8.473334312E-1,-3.603227854E0,3.741062804E0
1.449881308E1,-4.370203614E-1,1.416511536E0,-1.896142960E0,2.406833989E0
1.451672934E1,2.041804194E-1,2.332548618E0,-4.824042320E-1,2.390645633E0
1.453464578E1,1.325166225E-2,2.230026722E0,9.676594734E-1,2.430958585E0
1.455255734E1,-8.311737776E-1,1.545009613E0,2.153951645E0,2.778023082E0
1.457048276E1,-8.055959344E-1,4.995961189E-1,1.979617119E0,2.194872440E0
1.458839200E1,-7.415251732E-1,-2.499532700E-1,2.078390121E-2,7.827951138E-1
1.460631418E1,-6.450998783E-1,-2.706351280E-1,-2.061122417E0,2.176608106E0
1.462421536E1,-8.050949574E-1,3.267045021E-1,-3.347414970E0,3.458337853E0
1.464214078E1,-1.106449366E0,1.107697487E0,-2.975202084E0,3.362001094E0
1.466006265E1,-6.232494116E-1,1.652255058E0,-4.098515511E-1,1.812833390E0
1.467797665E1,-5.311920643E-1,1.869769096E0,5.199313164E-1,2.012095936E0
1.469589236E1,-7.126622200E-1,1.484058857E0,1.091398716E0,1.975213732E0
1.471380917E1,-2.692663074E-1,7.415585518E-1,1.115549088E0,1.366332023E0
1.473172537E1,-8.711856604E-2,-1.658062935E-1,1.663985252E-1,2.505391002E-1
1.474964194E1,-8.600169420E-2,-3.002285957E-1,-1.270155907E0,1.307986823E0
1.476755789E1,-8.989250660E-2,5.065822601E-1,-2.494960785E0,2.547456686E0
1.478547146E1,-1.487680674E-1,1.090224266E0,-2.433799267E0,2.670973560E0
1.480339358E1,-5.181306601E-2,1.713666916E0,-9.562997818E-1,1.963122045E0
1.482130722E1,-3.749746978E-1,2.073400497E0,3.321933746E-1,2.133060732E0
1.483922311E1,-6.239996552E-1,1.899666786E0,1.266085625E0,2.366660575E0
1.485713974E1,-5.776305795E-1,1.154828548E0,1.415963173E0,1.916308370E0
1.487505618E1,-5.434036255E-1,1.229891777E-1,7.325124741E-1,9.203197068E-1
1.489297281E1,-6.872085333E-1,-2.904686928E-1,-6.615505219E-1,9.971342551E-1
1.491088864E1,-8.888424039E-1,4.562349319E-1,-2.042635441E0,2.273884491E0
1.492880520E1,-9.601396322E-1,7.522659302E-1,-1.367947578E0,1.832771868E0
1.494671145E1,-7.083581686E-1,9.253721237E-1,1.338348389E-1,1.173028826E0
1.496463534E1,-3.173565269E-1,1.049149990E0,1.225352287E-1,1.102925994E0
1.498255642E1,-1.885898113E-1,8.992242813E-1,-7.399420738E-1,1.179696867E0
1.500047055E1,-2.023497522E-1,8.481917381E-1,-7.272481918E-1,1.135457872E0
1.501838675E1,-1.034508944E-1,4.883651733E-1,-6.349968910E-1,8.077274798E-1
1.503630325E1,-1.293657422E-1,1.547250748E-1,-9.488210678E-1,9.700189497E-1
1.505421908E1,3.609859943E-2,4.338665009E-1,-1.614797592E0,1.672457627E0
1.507213577E1,-1.969908178E-1,8.857069016E-1,-2.780415535E0,2.924720952E0
1.509005227E1,-5.114169121E-1,1.509631634E0,-1.853190899E0,2.444350923E0
1.510796884E1,-3.441671133E-1,1.820343494E0,6.325268745E-1,1.957598449E0
1.512588479E1,-5.185564756E-1,1.366055965E0,1.948379993E0,2.435404344E0
1.514380105E1,-7.279047966E-1,7.898130417E-1,1.382373333E0,1.750601630E0
1.516171762E1,-3.836926222E-1,2.193436623E-1,-2.279930115E-1,4.973052219E-1
1.517963406E1,-5.850716233E-1,-2.321915627E-1,-1.103531361E0,1.270434253E0
1.519754922E1,-5.055298805E-1,-4.766368866E-2,-1.566944122E0,1.647163067E0
1.521546750E1,-5.500057340E-1,8.743281364E-1,-2.271749020E0,2.495555971E0
1.523338284E1,-5.297970772E-1,1.442214489E0,-1.335868359E0,2.035979334E0
1.525129959E1,-2.251478434E-1,1.706821442E0,5.723257065E-1,1.814245766E0
1.526919876E1,-2.956930101E-1,1.674983025E0,1.494917393E0,2.264460311E0
1.528713186E1,-2.711185217E-1,1.207199574E0,1.642030239E0,2.055991092E0
1.530504818E1,7.808977365E-2,5.713777542E-1,4.775490761E-1,7.487480690E-1
1.532296469E1,-3.812716305E-1,-3.161907196E-2,-8.637189865E-1,9.446577738E-1
1.534088083E1,-3.443122804E-1,3.377127647E-1,-1.852420330E0,1.914173957E0
1.535878915E1,-7.892022133E-1,8.390550613E-1,-1.942914009E0,2.258709449E0
1.537671048E1,-7.736753821E-1,1.198644638E0,-8.154501915E-1,1.643253352E0
1.539463314E1,-5.114391446E-1,1.222021103E0,4.050369263E-1,1.385265493E0
1.541254593E1,-6.214711666E-1,9.463009834E-1,4.289007187E-1,1.210647673E0
1.543046268E1,-3.502618074E-1,8.205337524E-1,2.153158188E-1,9.177798617E-1
1.544837900E1,-2.314517796E-1,1.424589157E-1,-2.624082565E-2,2.730440438E-1
1.546629574E1,-3.974456489E-1,1.751470566E-2,-1.027678490E0,1.101994958E0
1.548421139E1,-3.149370253E-1,1.728429794E-1,-1.629350662E0,1.668485423E0
1.550212826E1,-6.055377126E-1,5.605387688E-1,-2.507730484E0,2.639998449E0
1.552004422E1,-5.087559223E-1,9.263668060E-1,-2.001515865E0,2.263416402E0
1.553796097E1,-3.941174448E-1,1.261750221E0,-6.027665138E-1,1.452814390E0
1.555587680E1,-5.243474245E-1,1.311172009E0,4.395146370E-1,1.478947387E0
1.557379324E1,-4.062495232E-1,1.247364044E0,1.012309074E0,1.657023052E0
1.559170950E1,-2.705878913E-1,6.519489288E-1,6.175708771E-1,9.378960502E-1
1.560962607E1,-5.063881874E-1,-4.803228378E-2,-9.353685379E-2,5.171897521E-1
1.562754226E1,-6.439357996E-1,3.414053917E-1,-1.444805622E0,1.618231826E0
1.564545859E1,-6.185449362E-1,4.920535088E-1,-1.650905609E0,1.830356201E0
1.566337503E1,-6.562756896E-1,7.058615685E-1,-1.113399506E0,1.472615630E0
1.568129159E1,-6.174028516E-1,1.287970543E0,-4.209761620E-1,1.489051822E0
1.569920285E1,-7.171344757E-1,1.871099949E0,2.473826408E-1,2.019033196E0
1.571712851E1,-6.381556988E-1,1.652163029E0,1.745116711E0,2.486426694E0
1.573504031E1,-4.749496877E-1,8.039326668E-1,2.453448296E0,2.625127326E0
1.575295706E1,-2.094950974E-1,2.127208710E-1,4.114394188E-1,5.083510206E-1
1.577086117E1,-6.057648063E-1,-1.656751633E-1,-1.393747807E0,1.528702786E0
1.578878933E1,-5.485126376E-1,-1.178984642E-1,-2.194111824E0,2.264705910E0
1.580670584E1,-4.258273244E-1,3.161096573E-1,-2.732218266E0,2.783212330E0
1.582462240E1,-8.477187753E-1,1.272338867E0,-2.504397869E0,2.934191882E0
1.584253817E1,-1.011657715E0,1.982711792E0,-1.077179909E-1,2.228497374E0
1.586045486E1,-6.095833182E-1,1.877502441E0,1.721050739E0,2.618897265E0
1.587837112E1,-3.003869057E-1,6.798601151E-1,2.870382309E0,2.965052557E0
1.589628769E1,-4.333323836E-1,2.436161041E-2,8.670630455E-1,9.696230028E-1
1.591420358E1,-7.703614235E-1,-4.296078682E-1,-1.087116718E0,1.399943714E0
1.593212014E1,-5.506392717E-1,-2.091436386E-1,-2.151963234E0,2.231118650E0
1.595003653E1,-5.652927160E-1,2.959012985E-1,-2.507241726E0,2.587155679E0
1.596795315E1,-1.101733565E0,1.115160465E0,-2.439385414E0,2.899655309E0
1.598585745E1,-9.302678704E-1,1.923622608E0,-7.925930023E-1,2.279018630E0
1.600377371E1,-6.014906168E-1,1.644527912E0,1.055825710E0,2.044756941E0
1.602169906E1,-2.845917046E-1,6.845517159E-1,1.941547394E0,2.078270861E0
1.603962137E1,-7.422870398E-1,4.298114777E-2,3.348631859E-1,8.154574064E-1
1.605753445E1,-6.125448346E-1,-2.970533371E-1,-1.011845589E0,1.219542273E0
1.607545096E1,-5.421366692E-1,-1.147503853E-1,-1.377510071E0,1.484794199E0
1.609335098E1,-5.596023798E-1,5.011487007E-1,-1.494571209E0,1.672736663E0
1.611128402E1,-8.360220194E-1,1.490191936E0,-9.467406273E-1,1.953438671E0
1.612919937E1,-7.620801926E-1,2.040430069E0,3.591094017E-1,2.207505526E0
1.614711630E1,-2.223950326E-1,1.159207344E0,1.824716568E0,2.173203113E0
1.616503256E1,-3.182609081E-1,5.323400497E-1,8.371248245E-1,1.041851192E0
1.618294931E1,-6.483191252E-1,-2.199664116E-1,-8.032388687E-1,1.055412521E0
1.620086496E1,-6.702176332E-1,-2.270898819E-1,-1.924971104E0,2.050920584E0
1.621878177E1,-4.961989224E-1,2.847552299E-1,-2.491691589E0,2.556526137E0
1.623669803E1,-7.680903673E-1,1.084326267E0,-1.900146484E0,2.318681291E0
1.625461465E1,-7.216736078E-1,1.959982395E0,8.478260040E-2,2.090342526E0
1.627253055E1,-5.585801601E-1,2.160261631E0,1.706820965E0,2.809266793E0
1.629044705E1,-4.025437534E-1,1.342467785E0,2.428166389E0,2.803614318E0
1.630836355E1,-7.338583469E-1,3.163428307E-1,1.557235718E0,1.750315383E0
1.632627694E1,-8.294359446E-1,5.283737183E-2,-4.175362587E-1,9.301033821E-1
1.634419333E1,-7.401289940E-1,-2.522149086E-1,-1.122158051E0,1.367714143E0
1.636211514E1,-8.643438816E-1,-1.913909912E-1,-1.396421432E0,1.653394591E0
1.638002884E1,-6.967378259E-1,1.298470497E-1,-1.432229519E0,1.597994133E0
1.639794565E1,-1.077907324E0,6.478724480E-1,-1.706232071E0,2.119634588E0
1.641584939E1,-8.072413206E-1,1.096498013E0,-1.161837101E0,1.789919521E0
1.643377444E1,-4.821553230E-1,1.245758057E0,-4.662656784E-2,1.336622957E0
1.645169778E1,-2.134112418E-1,1.345990181E0,6.798357964E-1,1.522961140E0
1.646961093E1,-2.952322364E-2,7.553529739E-1,1.219870090E0,1.435100266E0
1.648752688E1,-1.844908893E-1,1.292738914E-1,2.364635468E-3,2.252869698E-1
1.650543295E1,-5.194031596E-1,5.647516251E-2,-1.121770382E0,1.237472374E0
1.652335678E1,-6.717202663E-1,2.255735397E-1,-1.689139843E0,1.831743690E0
1.654127926E1,-5.635703802E-1,3.372015953E-1,-1.442633629E0,1.585089359E0
1.655919223E1,-6.278411150E-1,4.510865211E-1,-1.692499638E0,1.860703775E0
1.657710867E1,-6.721562147E-1,4.790878296E-1,-1.687991142E0,1.878997930E0
1.659502518E1,-8.656284809E-1,8.043584824E-1,-1.037640095E0,1.572578202E0
1.661294174E1,-7.221487164E-1,1.222740650E0,3.022656441E-1,1.451880844E0
1.663085745E1,-3.739502728E-1,1.100081921E0,1.948149204E0,2.268326335E0
1.664877426E1,-2.864002883E-1,6.019601822E-1,1.877246380E0,1.992093160E0
1.666669046E1,-2.307116985E-1,5.360317230E-2,4.644761086E-1,5.213820512E-1
1.668460702E1,-7.242704630E-1,1.108369827E-1,-1.069414616E0,1.296341066E0
1.670252298E1,-3.992193341E-1,1.874947548E-1,-8.587517738E-1,9.653936860E-1
1.672043948E1,-5.694856644E-1,7.957096100E-1,-1.553538799E0,1.836014844E0
1.673835599E1,-8.586432934E-1,1.420424938E0,-1.655137539E0,2.344004177E0
1.675627231E1,-7.157185078E-1,1.357449055E0,1.549048424E-1,1.542373635E0
1.677418832E1,-5.433848500E-1,1.088867188E0,9.576773643E-1,1.548562166E0
1.679210470E1,-4.476476610E-1,6.843862534E-1,9.135832787E-1,1.226135139E0
1.681002133E1,-6.369422078E-1,3.720240593E-1,2.519130707E-2,7.380595360E-1
1.682794058E1,-4.294030070E-1,1.700530052E-1,-7.875442505E-3,4.619166479E-1
1.684583944E1,-7.593927979E-1,3.087697029E-1,-7.502360344E-1,1.111247163E0
1.686377286E1,-1.006102324E0,9.158744812E-1,-7.915630341E-1,1.574052092E0
1.688168680E1,-6.972565055E-1,1.021230221E0,1.912932396E-1,1.251267718E0
1.689960342E1,-8.091032505E-1,9.312953949E-1,3.417100906E-1,1.280126935E0
1.691750473E1,-4.851841927E-1,6.443214417E-1,6.705427170E-2,8.093516518E-1
1.693543576E1,-9.168002009E-1,1.177430153E-1,-1.524033546E-1,9.368099106E-1
1.695335501E1,-5.760116577E-1,6.139273643E-1,-9.317846298E-1,1.255754289E0
1.697126864E1,-3.805153370E-1,5.911383629E-1,-9.090790749E-1,1.149200265E0
1.698918460E1,-6.204504967E-1,1.174413681E0,-8.075428009E-1,1.554455431E0
1.700710110E1,-5.102449059E-1,7.820553780E-1,7.178063393E-1,1.177797274E0
1.702501761E1,-7.409915328E-1,5.848412514E-1,-3.610134125E-2,9.446751017E-1
1.704293417E1,-5.810476542E-1,2.747621536E-1,-3.541326523E-1,7.338395961E-1
1.706085012E1,-8.732774854E-1,-1.353464127E-1,-4.794168472E-1,1.005371937E0
1.707876352E1,-9.923270941E-1,2.669982910E-1,-1.351876259E0,1.698107938E0
1.709668576E1,-7.429206371E-1,4.083733559E-1,-7.623429298E-1,1.140116930E0
1.711459952E1,-6.351621151E-1,7.446093559E-1,-2.174882889E-1,1.002584241E0
1.713251541E1,-6.503829956E-1,9.897937775E-1,2.714538574E-2,1.184663089E0
1.715043197E1,-5.903804302E-1,1.077609062E0,3.783278465E-1,1.285660259E0
1.716833664E1,-3.968592286E-1,9.299874306E-1,6.625037193E-1,1.208836236E0
1.718626498E1,-2.463976741E-1,1.040415764E-1,3.342528343E-1,4.280904351E-1
1.720418075E1,-8.930861354E-1,4.481301308E-1,-1.839418888E0,2.093295322E0
1.722209744E1,-9.785858393E-1,2.562627792E-1,-1.302693367E0,1.649336492E0
1.724000686E1,-6.612111926E-1,4.992904663E-1,-6.698760986E-1,1.065469473E0
1.725792965E1,-5.724294186E-1,3.122477531E-1,-2.863082886E-1,7.121422152E-1
1.727584707E1,-7.476481795E-1,1.663231850E-1,-1.519603729E-1,7.808541203E-1
1.729376297E1,-9.249136448E-1,4.679360390E-1,-5.788340569E-1,1.187214493E0
1.731167929E1,-5.131463408E-1,3.916807175E-1,5.447149277E-2,6.478426469E-1
1.732959579E1,-7.143421769E-1,9.665689468E-1,-6.179046631E-1,1.351423859E0
1.734751169E1,-7.698021531E-1,1.011635303E0,3.995885849E-1,1.332543575E0
1.736542831E1,-6.286460757E-1,1.136785030E0,1.300416470E0,1.838085713E0
1.738334451E1,-6.178538203E-1,5.282959938E-1,1.090530872E0,1.360182923E0
1.740126101E1,-4.870394468E-1,8.430004120E-2,-1.567530632E-1,5.185416498E-1
1.741917709E1,-5.257310867E-1,-3.698987961E-1,-1.294505596E0,1.445324543E0
1.743709378E1,-6.339244843E-1,-2.940669060E-1,-2.407526493E0,2.506894376E0
1.745501010E1,-7.445768118E-1,1.911182404E-1,-2.862159967E0,2.963592497E0
1.747292319E1,-7.023853660E-1,7.260661125E-1,-1.732070923E0,2.005140116E0
1.749083963E1,-1.319423020E-1,1.246959209E0,1.593613625E-1,1.264006363E0
1.750876175E1,-3.666443229E-1,1.420233727E0,1.111847878E0,1.840569912E0
1.752667556E1,-1.908348799E-1,6.731853485E-1,2.501127243E0,2.597158823E0
1.754459213E1,9.391397238E-3,7.514238358E-2,1.055860519E0,1.058572630E0
1.756249612E1,-8.489699364E-1,3.525891304E-1,-1.585641384E0,1.832846869E0
1.758042557E1,-1.082820892E0,4.770784378E-1,-9.989671707E-1,1.548560728E0
1.759833993E1,-8.157354593E-1,7.878694534E-1,-2.346992493E-2,1.134333925E0
1.761625741E1,-6.865394711E-1,1.074578285E0,-2.006664276E-1,1.290860934E0
1.763417337E1,-7.424647212E-1,1.032448292E0,-1.259646416E-1,1.277916440E0
1.765207870E1,-9.770205021E-1,8.842439651E-1,3.669877052E-1,1.367894889E0
1.767000400E1,-5.441998839E-1,7.844467163E-1,6.085767746E-1,1.132199565E0
1.768792526E1,-3.304093480E-1,4.937057495E-1,6.144614220E-1,8.546803750E-1
1.770582766E1,-1.667791605E-1,5.531339645E-1,4.796986580E-1,7.509216161E-1
1.772375546E1,-1.458889246E-2,8.579201698E-1,-1.684179306E-1,8.744166358E-1
1.774166910E1,-6.460118294E-1,9.800629616E-1,8.646154404E-2,1.177000548E0
1.775959103E1,-4.314882159E-1,1.066089153E0,1.307034969E0,1.740996431E0
1.777750418E1,-1.439619362E-1,7.475376129E-1,4.314947128E-1,8.750572604E-1
1.779542068E1,-5.621440411E-1,4.183721542E-1,-8.398094177E-1,1.093764618E0
1.781333719E1,-7.640924454E-1,3.236279488E-1,-8.657078743E-1,1.199175733E0
1.783125375E1,-6.847379208E-1,6.164684296E-1,-7.869734764E-1,1.211704006E0
1.784916971E1,-4.138254523E-1,6.858568192E-1,-3.744077682E-1,8.842127902E-1
1.786708627E1,-4.835900962E-1,3.994932175E-1,1.791868210E-1,6.523512312E-1
1.788499075E1,-8.646414280E-1,4.019451141E-2,-6.440854073E-1,1.078919093E0
1.790291653E1,-8.269111514E-1,-5.908107758E-2,-1.022569656E0,1.316404698E0
1.792083798E1,-5.980495214E-1,-2.401857376E-1,-9.293689728E-1,1.130963795E0
1.793875149E1,-6.254179478E-1,-1.088500023E-1,-6.921396255E-1,9.391768703E-1
1.795666806E1,-4.432960153E-1,3.940377235E-1,-9.300088882E-1,1.103038357E0
1.797458090E1,-2.952505946E-1,7.585062981E-1,-4.129352570E-1,9.126994271E-1
1.799249753E1,-2.745725214E-1,2.625241280E-1,9.248166084E-1,9.997973527E-1
1.801042007E1,9.597367048E-2,-1.822171211E-1,-3.646993637E-1,4.188312913E-1
1.802833352E1,2.009862959E-1,-1.184754372E-1,-2.064471722E0,2.077612911E0
1.804625003E1,-1.573565304E-1,-1.351141930E-1,-2.610363960E0,2.618590638E0
1.806415268E1,-4.323316216E-1,3.961281776E-1,-2.343713760E0,2.415951646E0
1.808207956E1,-5.145757794E-1,1.473433495E0,-1.420475483E0,2.110342411E0
1.810000155E1,-4.270742536E-1,1.424313545E0,6.412658691E-1,1.619346599E0
1.811791531E1,-8.924285173E-1,9.365906715E-1,1.735448837E0,2.164581579E0
1.813583133E1,-8.084611893E-1,4.788899422E-1,1.185604572E0,1.512813033E0
1.815374814E1,-7.962460518E-1,-3.363075256E-1,6.882328987E-1,1.104886895E0
1.817166440E1,-1.014952064E0,-4.778695107E-1,-5.775117874E-2,1.123308577E0
1.818958084E1,-7.545312643E-1,8.401775360E-2,-9.495816231E-1,1.215763822E0
1.820749661E1,-5.938514471E-1,8.284049034E-1,-1.101928711E0,1.501053333E0
1.822541299E1,-6.705495119E-1,1.046229362E0,6.310715675E-1,1.393730193E0
1.824332980E1,-5.022302270E-2,1.307876587E0,1.174059868E0,1.758260530E0
1.826124643E1,1.671079397E-1,8.254489899E-1,9.965643883E-1,1.304772654E0
1.827916214E1,-9.382480383E-2,6.610317230E-1,3.158216476E-1,7.385860449E-1
1.829707864E1,3.153467178E-1,5.281038284E-1,-1.958079338E-1,6.455059667E-1
1.831499514E1,-3.417371213E-1,6.781930923E-1,-8.255448341E-1,1.121719396E0
1.833291202E1,-4.197897911E-1,5.769906044E-1,-1.489434242E-1,7.289209627E-1
1.835082766E1,2.955961227E-2,6.811895370E-1,-2.411642075E-1,7.232241223E-1
1.836874417E1,-7.051677704E-1,4.057955742E-1,-1.004333019E0,1.292523286E0
1.838665750E1,-8.434271812E-1,5.043687820E-1,-8.925213814E-1,1.327535949E0
1.840457327E1,-5.692803264E-1,4.642729759E-1,-3.244385719E-1,8.030503553E-1
1.842249692E1,-1.332821012E0,7.097969055E-1,-4.630055428E-1,1.579429526E0
1.844040976E1,-5.139180422E-1,1.012321472E0,6.255536079E-1,1.296234482E0
1.845832620E1,-1.783118546E-1,1.112700939E0,1.174512863E0,1.627691299E0
1.847624270E1,-9.312980771E-1,9.000720978E-1,1.521249294E0,1.997910234E0
1.849415854E1,-7.289868593E-2,1.345162392E-1,2.086745262E0,2.092346679E0
1.851207498E1,4.668343067E-1,-4.089002609E-1,2.475028038E-1,6.681252362E-1
1.852999130E1,-3.576546907E-2,-4.502949715E-1,-1.925762653E0,1.978030972E0
1.854790805E1,-1.930803061E-3,-2.336053848E-1,-2.853145361E0,2.862693427E0
1.856582394E1,-2.599061131E-1,7.029423714E-1,-2.933065176E0,3.027300859E0
1.858374057E1,-4.552422166E-1,1.086872578E0,-1.041361809E0,1.572568565E0
1.860165677E1,1.124206185E-2,8.422818184E-1,1.137551308E0,1.415481552E0
1.861957358E1,1.518717408E-1,5.807952881E-1,1.218468666E0,1.358327679E0
1.863748684E1,-4.465174973E-1,4.065685272E-1,2.070469856E-1,6.383919619E-1
1.865540829E1,-6.235358715E-1,-7.710695267E-2,7.651052475E-1,9.900143963E-1
1.867332205E1,-5.807049274E-1,-2.561616898E-2,3.386936188E-1,6.727464368E-1
1.869123880E1,-3.809661865E-1,6.643724442E-2,-1.250626564E0,1.309051544E0
1.870915066E1,-4.370355904E-1,-3.592362404E-1,-1.648811340E0,1.743166550E0
1.872707132E1,-4.883535504E-1,8.946037292E-2,-2.453104973E0,2.502841656E0
1.874498770E1,-6.865098476E-1,6.286954880E-1,-2.422682762E0,2.595370022E0
1.876290408E1,-2.016082853E-1,5.612406731E-1,-1.045341492E-1,6.054456063E-1
1.878082034E1,-2.483042926E-1,7.175726891E-1,2.976927757E-1,8.155897097E-1
1.879873416E1,-2.061709166E-1,6.363992691E-1,-1.852483749E-1,6.941379092E-1
1.881665017E1,-4.026037455E-2,1.708464622E-1,3.783836365E-1,4.171133992E-1
1.883456967E1,-2.094936371E-2,1.856293678E-1,5.774931908E-1,6.069559485E-1
1.885248550E1,-2.772935629E-1,5.225782394E-1,1.165885925E-1,6.029698469E-1
1.887040524E1,1.629434526E-1,4.140357971E-1,5.523905754E-1,7.093035724E-1
1.888831839E1,-4.419734478E-1,5.329046249E-1,-3.648824692E-1,7.826027627E-1
1.890623526E1,-7.800891399E-1,1.060427189E0,-9.381623268E-1,1.616537485E0
1.892415084E1,-1.640736759E-1,5.824441910E-1,1.100453377E0,1.255849928E0
1.894206741E1,-7.150167227E-2,6.632456779E-1,8.540401459E-1,1.083693633E0
1.895998398E1,-2.030053437E-1,1.093814850E0,-7.143568993E-1,1.322099798E0
1.897790072E1,-1.783621311E-2,9.464817047E-1,1.645808220E-1,9.608499336E-1
1.899581619E1,-4.679319859E-1,1.151656628E0,7.568068504E-1,1.455345299E0
1.901373294E1,-8.889622688E-1,1.474200249E0,1.194730759E0,2.095447894E0
1.903163455E1,-1.600597799E-2,9.957518578E-1,1.924328327E0,2.166752746E0
1.904956601E1,-1.666735709E-1,3.621993065E-1,1.143964767E0,1.211455243E0
1.906748202E1,-1.011496067E0,2.961058617E-1,-4.642510414E-1,1.151664884E0
1.908539846E1,-2.750691772E-1,-3.002405167E-2,-1.272058487E-1,3.045419903E-1
1.910331497E1,-3.067342639E-1,8.088111877E-2,-4.890832901E-1,5.829495078E-1
1.912122861E1,-7.460193038E-1,-1.106081009E-1,-9.339408875E-1,1.200426814E0
1.913913559E1,-6.645828485E-1,3.611855507E-1,-1.403251648E0,1.594126893E0
1.915706418E1,-1.036772132E-2,1.012269974E0,-5.441751480E-1,1.149314831E0
1.917498007E1,-2.028334588E-1,1.141411781E0,8.562631607E-1,1.441231719E0
1.919289700E1,1.486092806E-1,8.253560066E-1,2.340581894E0,2.486286560E0
1.921080105E1,1.145977974E-1,1.719226837E-1,1.298374653E0,1.314711681E0
1.922872934E1,-2.375782728E-1,-1.832895279E-1,-1.128500462E0,1.167712199E0
1.924664547E1,-1.305241287E-1,-5.572700500E-1,-1.529295921E0,1.632890833E0
1.926456241E1,-2.901741266E-1,-9.264469147E-2,-2.500771999E0,2.519254782E0
1.928247806E1,-7.205602527E-1,3.125772476E-1,-2.233599186E0,2.367673317E0
1.930039462E1,-5.631338358E-1,9.022045135E-1,-1.162606239E0,1.575673180E0
1.931831106E1,-4.205630720E-2,1.174499989E0,-3.588294983E-1,1.228811444E0
1.933622757E1,-3.982506692E-1,2.618145943E-1,8.004856110E-1,9.316263686E-1
1.935414871E1,-2.954417765E-1,1.619672775E-2,1.337752342E0,1.370083759E0
1.937206009E1,2.050037235E-1,-4.470667839E-1,5.418820381E-1,7.318000951E-1
1.938997671E1,-5.063316822E-1,-5.012140274E-1,-6.238822937E-1,9.470039018E-1
1.940789309E1,-6.589683890E-1,4.878721237E-1,-1.617657185E0,1.813580247E0
1.942580032E1,-5.882889628E-1,1.579072952E0,-1.416839600E0,2.201588005E0
1.944372586E1,-5.908968449E-1,1.046782017E0,1.141879082E0,1.657950394E0
1.946163754E1,-2.964222133E-1,3.084654808E-1,2.369585037E0,2.407893339E0
1.947956277E1,-8.102376759E-2,-3.136973381E-1,1.827006340E-1,3.719548259E-1
1.949747439E1,3.868508339E-2,-2.357783318E-1,-1.822218418E0,1.837816074E0
1.951539120E1,-1.761753410E-1,5.815124512E-1,-2.317975998E0,2.396290301E0
1.953330356E1,-7.569162846E-1,1.426970482E0,-5.378012657E-1,1.702467979E0
1.955122305E1,-3.216820955E-1,1.517163754E0,2.059846878E0,2.578417031E0
1.956914053E1,-2.697427869E-1,6.608219147E-1,2.975331306E0,3.059745603E0
1.958705642E1,-4.878849685E-1,-3.223595619E-1,1.120153427E0,1.263602441E0
1.960497274E1,-3.325253725E-1,-7.440395355E-1,-9.200544357E-1,1.229092396E0
1.962288925E1,-4.166083336E-1,-6.445474625E-1,-2.022263050E0,2.162996019E0
1.964080490E1,-6.137310266E-1,-6.835026741E-1,-1.753646374E0,1.979676055E0
1.965872177E1,-8.627991676E-1,-2.756514549E-1,-1.669591904E0,1.899458674E0
1.967663821E1,-6.249538064E-1,8.156147003E-1,-2.020756245E0,2.266991486E0
1.969455478E1,6.412084401E-2,1.627741337E0,-9.496836662E-1,1.885617249E0
1.971247049E1,-3.192498684E-1,2.422999382E0,3.792176247E-1,2.473186708E0
1.973038699E1,-1.026327312E-1,2.328957081E0,2.542370796E0,3.449380209E0
1.974830349E1,-3.528556824E-1,6.013388634E-1,4.177149296E0,4.234937048E0
1.976620932E1,-4.214952588E-1,-6.503562927E-1,2.329716206E0,2.455239125E0
1.978413284E1,-2.251676619E-1,-1.155247688E0,-6.087551117E-1,1.325096405E0
1.980205551E1,-2.550767362E-1,-9.610791206E-1,-2.587821484E0,2.772283760E0
1.981996878E1,-6.634762287E-1,1.008901596E-1,-3.228339672E0,3.297355997E0
1.983788534E1,-1.226686478E0,1.296835899E0,-2.217638016E0,2.846833580E0
1.985578933E1,-8.058151603E-1,1.556013584E0,6.299757957E-1,1.862091794E0
1.987371426E1,-2.028496116E-1,1.348714828E0,2.199888229E0,2.588375528E0
1.989163766E1,-3.535898924E-1,1.083998680E-1,3.050199509E0,3.072538590E0
1.990955087E1,-3.331452012E-1,-3.549265862E-1,1.191754341E0,1.287337180E0
1.992746676E1,-2.361793965E-1,3.076648712E-1,-8.135876656E-1,9.013119714E-1
1.994536581E1,-6.765071154E-1,7.415199280E-2,-4.451346397E-1,8.132067650E-1
1.996329666E1,-3.286108971E-1,8.596987724E-1,-4.418396950E-1,1.020925765E0
1.998121908E1,-2.217253745E-1,8.147530556E-1,-1.146159172E-1,8.521276264E-1
1.999913211E1,-4.149301648E-1,3.958129883E-1,-3.253779411E-1,6.593222034E-1
2.001703677E1,-2.767866850E-1,-2.073163986E-1,-7.200574875E-1,7.987951824E-1
2.003496597E1,-3.881818354E-1,-8.886852264E-1,-1.552907467E0,1.830838106E0
2.005288144E1,-5.430877209E-1,-1.225977421E0,-1.891591072E0,2.318637896E0
2.007079739E1,-8.552098870E-1,-7.107996941E-1,-2.213506699E0,2.477141914E0
2.008871414E1,-3.301367760E-1,1.051383018E-1,-1.374973774E0,1.417955300E0
2.010663046E1,3.108265996E-2,7.211546898E-1,3.183336258E-1,7.889020951E-1
2.012454721E1,3.207522035E-1,1.343132496E0,5.721445084E-1,1.494736169E0
2.014246268E1,7.795628905E-2,7.529087067E-1,1.072432995E0,1.312654270E0
2.016037942E1,1.751015186E-1,1.585054398E-1,9.591517448E-1,9.878039208E-1
2.017828720E1,7.852110267E-2,-4.951853752E-1,-3.676624298E-1,6.217312777E-1
2.019621072E1,1.052083075E-1,-3.694977760E-1,-1.799305916E0,1.839863901E0
2.021412991E1,-4.067122936E-1,3.593397141E-2,-2.583820820E0,2.615881528E0
2.023204501E1,-6.241010427E-1,7.392239571E-1,-1.639486790E0,1.903646791E0
2.024996145E1,-3.210924268E-1,1.103433132E0,4.484539032E-1,1.233602824E0
2.026786856E1,-2.828195095E-1,1.293884754E0,1.058208942E0,1.695267176E0
2.028579226E1,-4.162077308E-1,7.976241112E-1,1.841098785E0,2.049165156E0
2.030371139E1,-6.244505644E-1,3.764348030E-1,2.044852734E0,2.170959320E0
2.032162674E1,-7.742604613E-2,6.357245445E-1,1.632319450E0,1.753455810E0
2.033954355E1,-3.565832973E-1,-6.337928772E-2,1.997528553E0,2.030095786E0
2.035744754E1,-2.231648862E-1,4.745016098E-1,2.777872086E-1,5.933970655E-1
2.037537558E1,-1.302804351E-1,5.810871124E-1,-4.542603493E-1,7.489911140E-1
2.039329196E1,-6.954512000E-1,6.938648224E-1,-1.107812405E0,1.480658329E0
2.041120858E1,-5.437561870E-2,1.299144268E0,-2.653965950E-1,1.327090008E0
2.042912436E1,-1.461930275E-1,1.556386948E0,2.803058624E-1,1.588170050E0
2.044704104E1,1.914527118E-1,1.424208641E0,7.012472153E-1,1.598990948E0
2.046495730E1,1.281259358E-1,1.069008350E0,1.478434086E0,1.828923852E0
2.048287387E1,-2.568382025E-1,2.019662857E-1,2.242484093E0,2.266162207E0
2.050078982E1,-2.323087454E-1,-1.121625900E-1,1.218552113E0,1.245558931E0
2.051870340E1,-1.459466815E-1,-5.647277832E-2,-1.010680199E-1,1.862910443E-1
2.053662582E1,-3.896758258E-1,-2.721590996E-1,-1.034733295E0,1.138679418E0
2.055453647E1,-7.392623425E-1,2.640676498E-2,-2.132633209E0,2.257283884E0
2.057245797E1,-7.167662382E-1,-1.050848961E-1,-1.492656708E0,1.659162657E0
2.059037167E1,-1.026494384E0,6.301975250E-2,-1.064265251E0,1.479973896E0
2.060828805E1,-6.910974383E-1,1.872396469E-2,-5.212435722E-1,8.658297279E-1
2.062620492E1,-3.636786342E-2,-1.376986504E-1,4.579463005E-1,4.795814362E-1
2.064412063E1,9.191548824E-2,2.964119911E-1,-1.222271919E-1,3.335386213E-1
2.066203744E1,4.994308054E-1,3.246474266E-1,-1.869826317E-1,6.243313107E-1
2.067993826E1,6.722366810E-2,8.063588142E-1,-7.850780487E-1,1.127422326E0
2.069787076E1,-5.922120810E-2,6.630616188E-1,-8.054747581E-1,1.044962893E0
2.071578537E1,-1.702556610E-1,4.274969101E-1,-2.451019287E-1,5.213593326E-1
2.073370248E1,-7.503539324E-2,2.394447327E-1,-1.825237274E-1,3.102885775E-1
2.075161892E1,-4.955920279E-1,-4.520606995E-2,-3.892302513E-1,6.317873340E-1
2.076952402E1,-6.105220318E-1,-8.896398544E-2,-1.325268745E-1,6.310428785E-1
2.078745144E1,-7.227976322E-1,-6.584072113E-2,2.772836685E-1,7.769540852E-1
2.080536795E1,-3.758411407E-1,1.251029968E-1,5.844917297E-1,7.060721670E-1
2.082328427E1,-2.351251245E-2,-9.863901138E-2,5.106024742E-1,5.205740864E-1
2.084120071E1,-4.714305401E-1,-5.160284042E-2,-3.829488754E-1,6.095567639E-1
2.085911667E1,-1.789390743E-1,-7.325649261E-3,-5.690064430E-1,5.965242574E-1
2.087703354E1,-5.745813847E-1,6.357913017E-1,-1.246163368E0,1.512381396E0
2.089494980E1,-1.200467348E-1,1.235138893E0,-3.228616714E-2,1.241378951E0
2.091285531E1,2.857474983E-1,1.215777874E0,1.601244450E0,2.030702159E0
2.093078195E1,-1.678192317E-1,1.274063110E0,1.785234928E0,2.199650848E0
2.094869882E1,5.222531557E-1,3.206315041E-1,2.073882580E0,2.162531358E0
2.096661502E1,-4.590830207E-2,-2.842373848E-1,1.425590515E-1,3.212811017E-1
2.098451620E1,-6.458017230E-2,-5.022063255E-1,-1.441032410E0,1.527401780E0
2.100243606E1,-1.793957055E-1,-4.418311119E-1,-2.203573704E0,2.254580808E0
2.102036319E1,-1.462626755E-1,4.374504089E-1,-2.293927193E0,2.339841361E0
2.103828146E1,-1.393895149E-1,3.617944717E-1,-2.586870193E-1,4.660940363E-1
2.105619736E1,-3.520300388E-1,8.840847015E-2,1.246197224E0,1.297978708E0
2.107411300E1,1.373231411E-1,6.079115868E-1,6.771416664E-1,9.202907034E-1
2.109201864E1,-1.228554249E-1,3.635506630E-1,8.210492134E-1,9.063025713E-1
2.110994516E1,-1.099933982E-1,-2.599763870E-1,1.578379154E0,1.603423532E0
2.112786331E1,-2.005770802E-2,-7.068152428E-1,5.447411537E-1,8.925990273E-1
2.114577835E1,2.391645014E-1,-1.137994766E0,-1.037005901E0,1.558079904E0
2.116369491E1,5.414170027E-2,-4.186038971E-1,-3.412609816E0,3.438614009E0
2.118161038E1,-2.214483321E-1,3.089833260E-1,-3.923630953E0,3.942003287E0
2.119952914E1,2.226489484E-1,7.525224686E-1,-1.767057419E0,1.933482491E0
2.121744381E1,1.895150244E-1,1.440083027E0,-1.337752342E-1,1.458646935E0
2.123536038E1,4.124991298E-1,1.172644138E0,1.364804745E0,1.846061158E0
2.125327701E1,1.196452677E-1,8.002691269E-1,1.900221825E0,2.065330155E0
2.127119314E1,3.049232364E-1,6.481170654E-3,2.329174042E0,2.349057663E0
2.128910916E1,9.098863602E-2,-9.076399803E-1,1.554212093E0,1.802127769E0
2.130702566E1,2.493821681E-1,-5.990953445E-1,-8.856825829E-1,1.097971008E0
2.132494192E1,9.338426590E-2,-7.904562950E-1,-1.462274075E0,1.664868537E0
2.134285873E1,-3.320460021E-1,-4.691886902E-2,-1.960826397E0,1.989295374E0
2.136077450E1,-2.141104341E-1,6.702065468E-1,-8.729200363E-1,1.121164343E0
2.137869119E1,-1.847004890E-2,7.713866234E-1,5.021262169E-1,9.206026304E-1
2.139660739E1,7.598359585E-1,1.679381371E0,2.490553856E-1,1.860027166E0
2.141452066E1,3.578418493E-1,1.035496235E0,1.300512791E0,1.700481332E0
2.143243991E1,-3.444206715E-2,8.304347992E-1,1.734514713E0,1.923369310E0
2.145035678E1,4.864199460E-1,9.767780304E-1,1.856796741E0,2.153693066E0
2.146827304E1,2.044058144E-1,7.719421387E-2,1.481392384E0,1.497419139E0
2.148618979E1,-6.710672379E-2,1.093654633E-1,1.555752754E-1,2.016625480E-1
2.150409787E1,2.740095854E-1,-2.731566429E-1,-9.355878830E-2,3.980565931E-1
2.152202078E1,2.290326953E-1,-2.358827591E-1,-1.218880653E0,1.262444731E0
2.153993857E1,4.368225336E-1,2.930912971E-1,-2.061847210E0,2.127893407E0
2.155785501E1,2.022700459E-1,6.391735077E-1,-1.975700855E0,2.086348440E0
2.157577108E1,1.874077916E-1,1.389733315E0,-3.226256371E-1,1.438946722E0
2.159368728E1,1.870019287E-1,1.844185829E0,1.255077839E0,2.238573536E0
2.161160385E1,-3.396660089E-1,1.651599884E0,2.936999321E0,3.386608951E0
2.162952035E1,2.006217539E-1,1.148562431E0,3.532655239E0,3.720093787E0
2.164743625E1,-1.169956028E-1,-2.837905884E-1,3.148828506E0,3.163755053E0
2.166535287E1,-2.195676267E-1,-9.517788887E-1,6.560859680E-1,1.176665540E0
2.168326913E1,3.127428889E-1,-7.580947876E-1,-6.829638481E-1,1.067218553E0
2.170118582E1,-9.477853775E-3,-3.981103897E-1,-2.071731091E0,2.109656708E0
2.171910159E1,-3.311283588E-1,-2.425527573E-2,-2.661221743E0,2.681852992E0
2.173702029E1,-6.535820365E-1,3.499836922E-1,-1.972700119E0,2.107416386E0
2.175493454E1,-2.892955840E-1,5.889406204E-1,-1.323534012E0,1.477255993E0
2.177285128E1,4.848493040E-1,8.386178017E-1,-1.847600937E-2,9.688653300E-1
2.179076736E1,4.996810257E-1,7.754039764E-1,1.399236679E0,1.675946222E0
2.180868356E1,6.423907280E-1,2.957243919E-1,2.123155117E0,2.237835207E0
2.182659994E1,4.676853716E-1,-6.391544342E-1,1.421878815E0,1.627571000E0
2.184451578E1,1.566835940E-1,-8.272137642E-1,-7.765483856E-1,1.145364464E0
2.186243332E1,2.319081128E-2,-8.141961098E-1,-1.879768372E0,2.048653765E0
2.188034915E1,-4.370852709E-1,-3.613047600E-1,-2.827491760E0,2.883798592E0
2.189826571E1,-5.122254491E-1,1.453127861E-1,-2.882157326E0,2.930925036E0
2.191617416E1,-5.844819546E-1,3.935561180E-1,-2.127738476E0,2.241378280E0
2.193409506E1,-5.387685895E-1,6.243996620E-1,-9.635286331E-1,1.268279921E0
2.195201730E1,-5.712785721E-1,1.194508076E0,3.989849091E-1,1.382894684E0
2.196993094E1,-3.432455361E-1,1.355521679E0,2.103581905E0,2.525928216E0
2.198784756E1,-1.360630095E-1,6.982388496E-1,3.059781551E0,3.141387237E0
2.200576321E1,-6.729021668E-2,-2.047948837E-1,2.626335144E0,2.635167017E0
2.202367996E1,-2.635566890E-1,-4.964799881E-1,2.380895615E-1,6.104434013E-1
2.204159646E1,-1.411476731E-2,-2.709746361E-1,-3.059477806E-1,4.089382894E-1
2.205951303E1,-8.184134960E-2,-1.237392426E-3,-8.219571114E-1,8.260224153E-1
2.207743008E1,-3.431877792E-1,1.956048012E-1,-1.168007374E0,1.232996478E0
2.209534390E1,-3.432934284E-1,5.211687088E-2,-6.021537781E-1,6.950940359E-1
2.211326181E1,-5.073218346E-1,-1.937685013E-1,-3.413686752E-1,6.414469957E-1
2.213117831E1,-7.315410972E-1,2.101325989E-1,-4.066028595E-1,8.629217643E-1
2.214909396E1,-1.537806988E-1,7.689714432E-1,-2.193946838E-1,8.143092846E-1
2.216700845E1,3.718083501E-1,9.710240364E-1,1.210271358E0,1.595583244E0
2.218492965E1,7.515906096E-1,6.147875786E-1,1.686816216E0,1.946330177E0
2.220284360E1,-1.272836924E-1,1.416640282E-1,-1.622366905E-1,2.501810923E-1
2.222075955E1,-7.579526305E-1,-3.648529053E-1,-6.575694084E-1,1.067711272E0
2.223867166E1,-3.270311952E-1,-5.844597816E-1,-1.081499100E0,1.272078198E0
2.225659103E1,-7.015582323E-1,-4.821963310E-1,-2.047561646E0,2.217477384E0
2.227451095E1,-7.522652149E-1,-4.688091278E-1,-2.298457146E0,2.463450873E0
2.229242508E1,-1.198857427E0,1.359748840E-2,-1.681183815E0,2.064902671E0
2.231034189E1,-1.216692090E0,1.030366421E0,1.407241821E-2,1.594425488E0
2.232824637E1,-9.845465422E-2,1.946074963E0,1.024023056E0,2.201255164E0
2.234616293E1,6.271030903E-1,2.020792484E0,2.944604874E0,3.625956207E0
2.236409036E1,5.584387183E-1,1.582617760E-1,4.021178722E0,4.062853543E0
2.238200711E1,-1.249116957E-1,-1.242410660E0,1.495826721E0,1.948508342E0
2.239992337E1,-3.764024377E-1,-1.382772923E0,-1.100249767E0,1.806734430E0
2.241784018E1,-1.066683650E0,-4.245719910E-1,-3.490914106E0,3.674854648E0
2.243575589E1,-1.681874037E0,8.752198219E-1,-2.111476898E0,2.837788700E0
2.245367270E1,-7.463250756E-1,1.583333015E0,8.697943687E-1,1.954606559E0
2.247157718E1,-3.044654131E-1,2.203336239E0,2.390081406E0,3.264946997E0
2.248950448E1,3.674086928E-2,1.687483788E0,3.440093040E0,3.831865284E0
2.250742239E1,-3.955045342E-2,3.837671280E-1,2.923843861E0,2.949187069E0
2.252533792E1,-2.149174064E-1,-5.156431198E-1,8.297901154E-1,1.000314428E0
2.254325448E1,-1.872286201E-3,-1.216097832E0,-5.867176056E-1,1.350235161E0
2.256117099E1,-2.627356052E-1,-7.895221710E-1,-1.656777382E0,1.853992058E0
2.257908401E1,-5.759673715E-1,-5.122756958E-2,-2.491086960E0,2.557318306E0
2.259700638E1,-7.447714806E-1,3.045916557E-1,-2.147588730E0,2.293381344E0
2.261491977E1,-1.103838921E0,6.718039513E-1,-2.918825150E-1,1.324755190E0
2.263283645E1,-5.981096625E-1,6.996803284E-1,9.264359474E-1,1.305975228E0
2.265073593E1,-1.575847864E-1,1.043323040E0,1.334195137E0,1.701009287E0
2.266866775E1,-1.480962038E-1,8.499383926E-1,1.323769569E0,1.580092918E0
2.268658639E1,-2.074989080E-1,-1.701569557E-1,1.452803135E0,1.477378129E0
2.270450210E1,-1.757254153E-1,-2.842774391E-1,1.606941223E-4,3.342051912E-1
2.272241775E1,-8.256793022E-1,3.561973572E-4,-1.150904655E0,1.416449068E0
2.274033456E1,-9.549598098E-1,8.132085800E-1,-6.704244614E-1,1.422225506E0
2.275825076E1,-4.388324022E-1,5.762095451E-1,4.159245491E-1,8.352152703E-1
2.277616757E1,-3.393996358E-1,-1.158533096E-1,6.833577156E-1,7.717459877E-1
2.279408322E1,-1.820880920E-1,-5.544734001E-1,-7.218999863E-1,9.282975896E-1
2.281199985E1,-7.191147804E-1,-7.770776749E-1,-1.441720009E0,1.788723669E0
2.282991629E1,-4.453609884E-1,-8.014888763E-1,-2.509379387E-1,9.506317257E-1
2.284783285E1,-7.930427790E-2,-8.241958618E-1,1.469087601E-2,8.281327242E-1
2.286574856E1,-9.691353440E-1,-2.700901031E-1,-1.074333668E0,1.471857605E0
2.288365365E1,-2.419227362E-2,6.173377037E-1,-1.299624443E0,1.438997846E0
2.290157742E1,4.140498042E-1,2.071444988E0,-2.880382538E-2,2.112617154E0
2.291950277E1,6.661779284E-1,2.262248516E0,2.705252647E0,3.588865178E0
2.293741385E1,5.149904490E-1,6.829071045E-1,3.437232971E0,3.542054174E0
2.295533090E1,-5.325686932E-1,-4.379038811E-1,8.521065712E-1,1.096118073E0
2.297324838E1,-5.667595863E-1,-1.155375481E0,-1.308252335E0,1.835111196E0
2.299116403E1,-1.043432355E0,-8.409094810E-1,-3.357331991E0,3.614907735E0
2.300907919E1,-1.144000053E0,-2.503099442E-1,-2.939116240E0,3.163826079E0
2.302699612E1,-9.691483974E-1,1.746058464E-1,-4.080209732E-1,1.065934769E0
2.304491269E1,-1.095853746E-1,8.641905785E-1,4.283967018E-1,9.707512783E-1
2.306281894E1,2.519214153E-1,2.023663998E0,1.214966774E0,2.373778557E0
2.308074228E1,5.030325055E-1,2.217705250E0,4.120765209E0,4.706587318E0
2.309866452E1,3.912819028E-1,3.275971413E-1,5.553357124E0,5.576755039E0
2.311656650E1,-2.777402401E-1,-1.579974174E0,2.791235447E0,3.219387108E0
2.313449618E1,4.465528131E-1,-2.192372799E0,-4.930410385E-1,2.291069045E0
2.315240921E1,9.719926119E-2,-1.140079021E0,-4.478194237E0,4.622061390E0
2.317032718E1,-5.960801840E-1,7.032442093E-1,-4.928906441E0,5.014377599E0
2.318823398E1,-4.997949600E-1,1.994334221E0,-1.380970955E0,2.476740754E0
2.320616018E1,2.596413791E-1,2.420882702E0,1.999698162E0,3.150695073E0
2.322407596E1,-4.202682525E-2,1.622265816E0,2.415297508E0,2.909841007E0
2.324198105E1,2.314651906E-1,5.969023705E-1,2.109728813E0,2.204727702E0
2.325990896E1,2.010055780E-1,-3.572387695E-1,1.134361267E0,1.206150183E0
2.327782577E1,-2.977364361E-1,-6.763753891E-1,5.824909210E-1,9.409709482E-1
2.329573001E1,-9.376185387E-2,-2.080068588E-1,8.912897110E-2,2.449532854E-1
2.331365530E1,-4.665219188E-1,3.884878159E-1,-3.260121346E-1,6.890931691E-1
2.333157754E1,-6.253755689E-1,6.826534271E-1,-4.933404922E-2,9.271160403E-1
2.334949124E1,-1.187252477E-1,3.693881035E-1,9.503164291E-1,1.026471905E0
2.336740701E1,-8.964463323E-2,3.553571701E-1,1.997947693E-3,3.664953893E-1
2.338531186E1,-7.047029585E-2,-1.603589058E-1,6.099319458E-1,6.345849193E-1
2.340324051E1,2.533285618E-1,-2.951607704E-1,3.681144714E-1,5.355403857E-1
2.342115610E1,2.656274736E-1,-5.718083382E-1,-3.580651283E-1,7.250747316E-1
2.343906076E1,4.207650423E-1,-2.602663040E-1,-1.019825459E0,1.133501538E0
2.345698935E1,5.816008449E-1,-3.380870819E-2,-1.212872028E0,1.345533771E0
2.347489413E1,2.655035853E-1,6.585502625E-2,-1.167930126E0,1.199537335E0
2.349282211E1,3.596707880E-1,4.424400330E-1,-6.632137299E-1,8.746248967E-1
2.351073806E1,2.213500291E-1,1.804614067E-1,-3.485183716E-1,4.505854081E-1
2.352865481E1,-2.281583846E-1,-1.567654610E-1,-1.831965446E-1,3.319527559E-1
2.354657107E1,2.335571498E-2,-5.921654701E-1,1.814556122E-2,5.929036134E-1
2.356448770E1,5.118697882E-3,-6.474056244E-1,-1.086930752E0,1.265139796E0
2.358240353E1,-1.722569466E-1,-6.831555367E-1,-1.522184372E0,1.677325015E0
2.360032016E1,-1.167275310E-1,-6.534628868E-1,-1.574559689E0,1.708764839E0
2.361823636E1,-1.570323557E-1,-3.070034981E-1,-1.587301731E0,1.624326659E0
2.363615317E1,1.450569481E-1,5.056257248E-1,-1.222826958E0,1.331166654E0
2.365406918E1,-3.610222042E-2,1.276178837E0,-6.281375885E-2,1.278233688E0
2.367198562E1,-5.263393521E-1,1.355520248E0,1.863411903E0,2.363635374E0
2.368990219E1,2.477792352E-1,6.250100136E-1,3.981562138E0,4.037928816E0
2.370780716E1,1.159483194E0,-6.023645401E-1,2.650406361E0,2.954978544E0
2.372573184E1,3.893405199E-1,-1.529569149E0,-2.949666977E-1,1.605669074E0
2.374365378E1,-1.624966264E-1,-9.735150337E-1,-2.348088741E0,2.547088026E0
2.376156741E1,2.243752480E-1,2.838230133E-1,-2.399610996E0,2.426732925E0
2.377948422E1,2.581653595E-1,8.075337410E-1,-4.122753143E-1,9.427253208E-1
2.379739364E1,3.098188043E-1,1.554520607E0,6.915979385E-1,1.729401549E0
2.381531289E1,-1.775952280E-1,1.694088936E0,1.796562672E0,2.475704914E0
2.383323526E1,-4.129602313E-1,1.533420563E0,2.784391403E0,3.205425130E0
2.385114975E1,-5.460091680E-2,7.335562706E-1,3.295506954E0,3.376603641E0
2.386906570E1,5.094525218E-1,-5.355477333E-1,2.067019939E0,2.195204928E0
2.388698227E1,7.424892485E-2,-1.326646328E0,-1.165204048E-1,1.333821722E0
2.390489847E1,-5.705554783E-2,-1.550221443E0,-1.652781487E0,2.266744031E0
2.392281503E1,1.246614456E-1,-6.011972427E-1,-2.992736816E0,3.055069926E0
2.394073098E1,-2.429118007E-2,4.473066330E-1,-2.420717716E0,2.461817935E0
2.395864773E1,-8.139083534E-2,1.811422825E0,-9.017381668E-1,2.025094773E0
2.397656405E1,-3.989271820E-2,1.891770363E0,1.876853466E0,2.665138921E0
2.399448056E1,3.276363015E-2,5.281739235E-1,3.045502186E0,3.091136476E0
2.401239651E1,4.303377271E-1,-3.516311646E-1,1.651401997E0,1.742401673E0
2.403031405E1,5.842682123E-1,-1.027898312E0,-9.758610725E-1,1.533052222E0
2.404822653E1,-1.409335583E-1,-7.347388268E-1,-1.653076649E0,1.814487756E0
2.406614352E1,-3.953453004E-1,-2.384591103E-1,-7.092332840E-1,8.462697590E-1
2.408406198E1,4.484772682E-3,5.382237434E-1,-6.358385086E-2,5.419850711E-1
2.410197861E1,9.368181229E-2,5.534129143E-1,-1.068940163E-1,5.713741912E-1
2.411989505E1,-2.313942909E-1,9.888672829E-1,-5.332450867E-1,1.147062397E0
2.413780893E1,-5.690557957E-1,1.124215126E0,8.300895691E-1,1.508884635E0
2.415573050E1,-5.670406222E-1,1.192157269E0,2.059738159E0,2.446486318E0
2.417364432E1,-1.396610439E-1,4.598240852E-1,3.547795773E0,3.580195280E0
2.419156088E1,5.587522984E-1,-5.869293213E-1,2.085673809E0,2.237571317E0
2.420946908E1,4.425598681E-1,-1.234736443E0,-1.109952927E-1,1.316340866E0
2.422739425E1,3.822056055E-1,-1.408349514E0,-1.749590874E0,2.278288328E0
2.424530874E1,4.177929759E-1,-7.914733887E-1,-2.549209356E0,2.701749329E0
2.426322610E1,-1.441601813E-1,-4.201650620E-1,-2.290311337E0,2.332990968E0
2.428114285E1,-5.872471929E-1,4.589242935E-1,-8.633012772E-1,1.140508601E0
2.429905868E1,-1.960156113E-1,1.246402740E0,3.673586845E-1,1.314113509E0
2.431697537E1,3.871401846E-1,1.816726685E0,1.437033653E0,2.348497198E0
2.433489169E1,7.921456099E-1,1.392273426E0,2.626412868E0,3.076355720E0
2.435280844E1,6.499075294E-1,4.405317307E-1,2.472100258E0,2.593786361E0
2.437072415E1,5.684601665E-1,-2.650604248E-1,6.648321152E-1,9.140053233E-1
2.438864065E1,6.515758634E-1,-5.421848297E-1,-1.348692894E0,1.592949471E0
2.440655722E1,2.552531064E-1,-3.959364891E-1,-2.056568623E0,2.109832778E0
2.442447372E1,-3.231610954E-1,-2.090096474E-1,-2.256011963E0,2.288603964E0
2.444237845E1,-5.529074073E-1,3.087062836E-1,-5.786972046E-1,8.578441730E-1
2.446030502E1,-6.622297168E-1,9.530258179E-2,5.937504768E-1,8.945224472E-1
2.447822415E1,-5.683646798E-1,-1.196923256E-1,1.349925041E0,1.469578946E0
2.449613925E1,-3.801686764E-1,-3.263211250E-1,7.614712715E-1,9.115109415E-1
2.451405520E1,-5.217963085E-2,-6.762385368E-1,9.064922333E-1,1.132143737E0
2.453195999E1,2.969874740E-1,-5.588207245E-1,1.879568100E-1,6.601590144E-1
2.454988400E1,4.601427317E-1,-3.721914291E-1,-3.495125771E-1,6.873258579E-1
2.456780929E1,1.963276118E-1,-8.121824265E-2,-7.001490593E-1,7.316759114E-1
2.458572073E1,2.979372740E-1,1.462049484E-1,-1.058983803E0,1.109769886E0
2.460363754E1,1.132073924E-1,5.712771416E-1,-1.090003490E0,1.235832147E0
2.462153988E1,4.065359011E-3,7.220678329E-1,-2.621316910E-1,7.681871555E-1
2.463947177E1,-9.264351428E-2,7.313308716E-1,3.816390038E-1,8.301060135E-1
2.465738913E1,1.982517168E-2,5.361604691E-1,4.019303322E-1,6.703798013E-1
2.467530301E1,-1.323795319E-1,5.417504311E-1,9.295935631E-1,1.084048921E0
2.469321933E1,-4.458489642E-2,4.657182693E-1,1.147295475E0,1.239019058E0
2.471113608E1,2.626012266E-1,6.122498512E-1,1.280117035E0,1.443090055E0
2.472905179E1,3.248054683E-1,3.858551979E-1,7.807793617E-1,9.295155930E-1
2.474696860E1,1.500752270E-1,1.825590134E-1,6.391410828E-1,6.814335557E-1
2.476488479E1,1.992553622E-1,-1.464419365E-1,-3.466477394E-1,4.258081673E-1
2.478280160E1,3.638237417E-1,-5.166320801E-1,-7.443752289E-1,9.764071397E-1
2.480071725E1,1.536913067E-1,-6.685714722E-1,-1.172546864E0,1.358482601E0
2.481863119E1,-2.223757952E-1,-5.484070778E-1,-1.351309299E0,1.475207829E0
2.483655337E1,-3.996952474E-1,-1.521873474E-1,3.030581474E-1,5.241769932E-1
2.485446683E1,-1.615103930E-1,2.102241516E-1,1.516414165E0,1.539412785E0
2.487238278E1,1.379230917E-1,3.744444847E-1,1.474501133E0,1.527542157E0
2.489029971E1,5.053752661E-1,2.127342224E-1,3.835968971E-1,6.691835237E-1
2.490821609E1,6.066854596E-1,2.479481697E-1,-5.334668159E-1,8.450635393E-1
2.492613266E1,5.998947620E-1,3.252410889E-1,-9.501132965E-1,1.169773810E0
2.494404837E1,4.144865870E-1,7.191314697E-1,-7.026686668E-1,1.087516647E0
2.496196487E1,-1.881131902E-2,8.654341698E-1,-2.131948471E-1,8.915055865E-1
2.497988260E1,-3.984401226E-1,6.949934959E-1,1.162009239E-1,8.094894350E-1
2.499779825E1,-3.477740288E-1,1.665244102E-1,-3.631720543E-1,5.296896217E-1
2.501571414E1,-4.922806025E-1,-3.833394051E-1,-6.520128250E-1,9.024466826E-1
2.503361899E1,-8.059132099E-1,-4.115633965E-1,-3.458123207E-1,9.687449057E-1
2.505154428E1,-5.537879467E-1,-2.176156044E-1,1.116901398E0,1.265506370E0
2.506946664E1,-5.657368153E-2,1.585311890E-1,2.119862080E0,2.126534259E0
2.508737936E1,2.194598615E-1,5.833649635E-1,1.978045940E0,2.073919732E0
2.510529623E1,5.155536532E-1,9.710712433E-1,1.968963623E0,2.255125867E0
2.512321274E1,6.956220865E-1,9.680604935E-1,1.689340115E0,2.067583427E0
2.514112918E1,6.639028192E-1,8.227696419E-1,3.695168495E-1,1.119937292E0
2.515904495E1,2.039541304E-1,1.705718040E-1,-3.274250031E-2,2.678882210E-1
2.517696176E1,-4.945289344E-3,-1.036930084E-2,-1.265884876E0,1.265937004E0
2.519487771E1,-3.390779793E-1,-3.400511742E-1,-1.989961624E0,2.047084742E0
2.521279532E1,-3.711609840E-1,-1.140623093E-1,-1.857962608E-1,4.304543379E-1
2.523071072E1,-3.142606914E-1,1.420035362E-1,5.862283707E-2,3.498019775E-1
2.524862704E1,-1.011294350E-1,5.312790871E-1,9.333457947E-1,1.078711733E0
2.526654342E1,2.650527954E-1,5.766510963E-1,2.067866325E0,2.163065096E0
2.528445743E1,4.205167294E-1,2.230601311E-1,1.774517536E0,1.837254100E0
2.530237918E1,2.911692858E-1,-1.872711182E-1,-1.709380150E-1,3.860956224E-1
2.532029275E1,-1.049006730E-1,-4.435129166E-1,-1.595963955E0,1.659761671E0
2.533820926E1,-4.563830793E-1,-5.146317482E-1,-1.637994289E0,1.776557526E0
2.535611856E1,-7.053543925E-1,-1.469855309E-1,-1.551979065E0,1.711072349E0
2.537403836E1,-7.247254848E-1,-1.065392494E-1,-8.988800049E-1,1.159552889E0
2.539196170E1,-1.444942951E-1,-1.160984039E-1,2.275724411E-1,2.935075070E-1
2.540987484E1,1.144067049E-1,-7.309336662E-1,-4.926829338E-1,8.888697271E-1
2.542779135E1,1.899872348E-2,-9.003138542E-1,-7.455439568E-1,1.169085873E0
2.544569583E1,-2.629927993E-1,-4.972224236E-1,-9.161629677E-1,1.075058107E0
2.546362405E1,-2.545167804E-1,4.111194611E-1,9.217176437E-1,1.040846491E0
2.548154031E1,-1.354459673E-2,1.216855526E0,2.517656803E0,2.796339859E0
2.549945694E1,3.460740149E-1,1.313467503E0,2.986107826E0,3.280518870E0
2.551736990E1,5.498607159E-1,7.554473877E-1,9.451823235E-1,1.329066284E0
2.553529251E1,3.097141385E-1,-1.943211555E-1,-9.853873253E-1,1.051033653E0
2.555320590E1,3.812279552E-2,-8.057389259E-1,-2.442592382E0,2.572338646E0
2.557112265E1,-4.816913605E-1,-7.874922752E-1,-2.541921377E0,2.704354810E0
2.558903860E1,-9.267817140E-1,-3.952102661E-1,-9.325160980E-1,1.372844410E0
2.560695224E1,-1.031522751E0,2.523889542E-1,1.000040054E0,1.458704727E0
2.562487430E1,-7.225684524E-1,7.845873833E-1,1.819449902E0,2.109047291E0
2.564278793E1,-2.714099288E-1,7.658042908E-1,2.884519577E0,2.996760376E0
2.566070413E1,1.211239323E-1,3.202471733E-1,2.381911755E0,2.406394163E0
2.567862063E1,7.139860392E-1,3.112173080E-2,6.573057175E-1,9.709765355E-1
2.569653720E1,6.280865669E-1,-1.635217667E-1,-5.184416771E-1,8.306707388E-1
2.571445370E1,5.175135136E-1,-1.577329636E-1,-1.029623032E0,1.163109415E0
2.573236972E1,9.349547327E-2,4.521303177E-1,-1.365664005E0,1.441596824E0
2.575028616E1,-3.442144394E-1,1.008332729E0,-4.576315880E-1,1.159588351E0
2.576820273E1,-5.392582417E-1,1.137932777E0,9.364194870E-1,1.569258396E0
2.578610525E1,-8.953127861E-1,3.866229057E-1,1.212814808E0,1.556271832E0
2.580403573E1,-7.701290250E-1,-4.550147057E-1,9.303522110E-1,1.290617036E0
2.582195169E1,-2.778949142E-1,-1.005867004E0,6.348910332E-1,1.221507527E0
2.583986819E1,-1.151044518E-1,-8.834409714E-1,-2.666568756E-2,8.913069301E-1
2.585777334E1,-4.134791493E-1,-2.949414253E-1,-1.100583076E0,1.212121512E0
2.587570071E1,-7.219145894E-1,8.145303726E-1,-4.615850449E-1,1.182235660E0
2.589361722E1,-4.645442665E-1,1.603606224E0,7.851953506E-1,1.844962340E0
2.591153378E1,4.709208906E-1,1.218607903E0,1.838085651E0,2.255067752E0
2.592945059E1,1.102900505E0,-1.039018631E-1,1.254424572E0,1.673548962E0
2.594736642E1,4.741207659E-1,-9.095988274E-1,-2.558360100E-1,1.057171978E0
2.596528280E1,-1.995340139E-1,-1.600478649E0,-1.992530823E0,2.563498549E0
2.598319925E1,-6.607874632E-1,-7.307820320E-1,-2.743645191E0,2.915179477E0
2.600111612E1,-2.218361944E-1,8.973546028E-1,-1.859264851E0,2.076372405E0
2.601902908E1,6.487614661E-2,1.876895905E0,2.391061783E-1,1.893176937E0
2.603695150E1,-3.866081834E-1,1.594195843E0,3.095276833E0,3.503093625E0
2.605486496E1,3.817120194E-1,1.176013947E-1,4.399368763E0,4.417463035E0
2.607278158E1,7.045820951E-1,-7.207202911E-1,2.082894802E0,2.313941318E0
2.609069729E1,-3.479624391E-1,-1.251726627E0,-5.390510559E-1,1.406582187E0
2.610861404E1,-3.723930120E-1,-1.628540039E0,-1.225487232E0,2.071868280E0
2.612653067E1,-1.984051466E-1,-1.260210991E0,-1.374782085E0,1.875505832E0
2.614444711E1,1.767249107E-1,-2.992224693E-1,-2.231017590E0,2.257920562E0
2.616236306E1,-5.341224074E-1,1.145695210E0,-2.559273005E0,2.854432093E0
2.618027792E1,-6.217054129E-1,2.194700241E0,-2.364301682E-1,2.293278438E0
2.619819308E1,1.315566748E-1,1.788104534E0,2.877293110E0,3.390197726E0
2.621611557E1,1.114784122E0,7.166647911E-1,4.388994694E0,4.584716620E0
2.623402865E1,6.930541992E-1,-6.831216812E-1,1.501960754E0,1.789655124E0
2.625194540E1,-6.834134459E-2,-1.437703133E0,-1.250749111E0,1.906838791E0
2.626985013E1,-1.594459563E-1,-7.727413177E-1,-1.763658047E0,1.932108140E0
2.628777841E1,3.515971452E-2,2.668633461E-1,-1.667478561E0,1.689063943E0
2.630569412E1,-4.815753102E-1,2.742457390E-1,-1.387925148E-1,5.713045308E-1
2.632361062E1,-5.754994154E-1,1.719040871E-1,5.126342773E-1,7.896483360E-1
2.634152420E1,-2.414717376E-1,-6.003522873E-2,5.900907516E-2,2.557242650E-1
2.635943289E1,-4.310079664E-2,1.405496597E-1,-6.075143814E-1,6.250484854E-1
2.637736197E1,-5.139291883E-1,-4.994201660E-2,3.626332283E-1,6.309677280E-1
2.639527646E1,-1.086229309E-1,-1.969614029E-1,1.582523346E0,1.598428252E0
2.641319284E1,3.832873404E-1,2.280359268E-1,1.364385605E0,1.435429430E0
2.643110977E1,2.790537179E-1,7.524175644E-1,-7.938013077E-1,1.128770873E0
2.644902548E1,-5.852251053E-1,8.406882286E-1,-7.860884666E-1,1.291193324E0
2.646694192E1,-4.806300998E-1,3.967890739E-1,1.259817600E0,1.405555850E0
2.648485824E1,3.470223248E-1,-5.699687004E-1,1.676275730E0,1.804214271E0
2.650276321E1,7.160357833E-1,-5.438303947E-1,-7.377543449E-1,1.163073607E0
2.652068899E1,-1.902363151E-1,-1.242613792E-1,-2.536666632E0,2.546823187E0
2.653860946E1,-5.987148285E-1,4.934101105E-1,-1.276718616E0,1.493962318E0
2.655652402E1,-4.726573825E-2,1.171424389E0,1.441213608E0,1.857839017E0
2.657444076E1,-1.315184534E-1,9.970049858E-1,2.819216251E0,2.993208365E0
2.659234744E1,-7.769103050E-1,-5.723381042E-2,3.445992470E0,3.532949113E0
2.661027243E1,-2.971310914E-1,-1.158460617E0,2.702731609E0,2.955516205E0
2.662819034E1,-3.429141268E-2,-1.447561264E0,7.439846992E-1,1.627919761E0
2.664610605E1,-1.625486836E-2,-1.680800438E0,-1.457490444E0,2.224777006E0
2.666402224E1,-2.547461987E-1,-1.442608833E0,-2.929479122E0,3.275341784E0
2.668192709E1,-3.575372994E-1,-9.491910934E-1,-3.527481556E0,3.670411800E0
2.669985501E1,-4.153107703E-1,3.090300560E-1,-3.306786537E0,3.347061370E0
2.671777182E1,4.100606143E-1,2.051795006E0,-2.265140057E0,3.083645883E0
2.673568777E1,3.903619647E-1,2.802713871E0,-6.625318527E-2,2.830543586E0
2.675360434E1,-2.388881743E-1,2.123569965E0,2.496335983E0,3.286078255E0
2.677152078E1,-1.470178962E-1,3.106431961E-1,5.115026951E0,5.126559681E0
2.678943741E1,2.392427176E-1,-1.508695602E0,4.107132912E0,4.382001855E0
2.680735330E1,4.623034298E-1,-2.243196487E0,7.162389755E-1,2.399719403E0
2.682526175E1,4.490368366E-1,-2.069623947E0,-1.854698658E0,2.815117133E0
2.684318631E1,4.313530028E-1,-1.031015873E0,-3.457917452E0,3.634040760E0
2.686110293E1,-1.844333708E-1,6.008834839E-1,-3.700254202E0,3.753259622E0
2.687901883E1,-5.643519759E-1,1.919908047E0,-1.344782829E0,2.411012426E0
2.689693564E1,-2.297459692E-1,1.707439899E0,2.049020767E0,2.677054412E0
2.691484012E1,-3.144364804E-2,5.664815903E-1,4.132068634E0,4.170837001E0
2.693276571E1,5.021878481E-1,-7.991938591E-1,3.505363941E0,3.630217599E0
2.695068704E1,4.226518869E-1,-1.055153847E0,6.255531311E-1,1.297420895E0
2.696860116E1,4.014495015E-1,9.393358231E-2,-8.613681793E-1,9.549556851E-1
2.698651742E1,4.384329543E-2,8.871264458E-1,3.526449203E-2,8.889089659E-1
2.700441733E1,-4.846942127E-1,5.229530334E-1,1.523839474E0,1.682407530E0
2.702234933E1,2.650991976E-1,6.952657700E-1,1.404934406E0,1.589815323E0
2.704026718E1,-4.900134802E-1,4.108710289E-1,-2.922677994E-1,7.030993384E-1
2.705818313E1,6.252774596E-1,2.984123230E-1,-1.215697289E0,1.399264705E0
2.707610000E1,-1.987360716E-1,-8.956809044E-1,-1.014630318E0,1.367923605E0
2.709401559E1,1.401075721E-2,-1.095609188E0,-7.658991814E-1,1.336846046E0
2.711193222E1,-7.823273540E-2,-4.575777054E-1,-4.666419029E-1,6.582190995E-1
2.712984872E1,4.053180516E-1,4.768919945E-1,-5.602011681E-1,8.399607408E-1
2.714776547E1,2.250116318E-1,1.072815895E0,3.214201927E-1,1.142311306E0
2.716568094E1,2.166857719E-1,1.382282257E0,1.893284321E0,2.354184037E0
2.718359768E1,-6.599392891E-1,5.977292061E-1,3.367707253E0,3.483425356E0
2.720151425E1,4.714717269E-1,-4.212684631E-1,2.918018818E0,2.985730485E0
2.721943094E1,3.991039470E-2,-1.723591328E0,5.118331909E-1,1.798425178E0
2.723733633E1,2.906677127E-1,-2.126122952E0,-1.817210674E0,2.811963933E0
2.725526199E1,-3.373028636E-1,-1.558753014E0,-3.724482059E0,4.051573866E0
2.727318124E1,-1.921912879E-1,1.634120941E-1,-5.083968639E0,5.090223780E0
2.729109646E1,-1.175114274E0,1.895956039E0,-3.984455585E0,4.566336516E0
2.730901230E1,-3.850070536E-1,2.875714779E0,2.271165848E-1,2.910248763E0
2.732692898E1,-6.148126721E-1,1.826193810E0,4.415415764E0,4.817559010E0
2.734484109E1,3.462250233E-1,6.189050674E-1,6.560664654E0,6.598881416E0
2.736276651E1,1.806464791E-1,-1.504820347E0,4.551995277E0,4.797684695E0
2.738067795E1,2.620639205E-1,-2.228213310E0,9.978666306E-1,2.455473451E0
2.739859482E1,-3.612148166E-1,-2.485091686E0,-1.078013897E0,2.732813714E0
2.741649789E1,1.164957732E-1,-1.323366165E0,-2.719205141E0,3.026375038E0
2.743442367E1,-4.084237814E-1,4.878091812E-1,-4.032767773E0,4.082644203E0
2.745234744E1,-8.114116192E-1,2.252133846E0,-3.520990372E0,4.257683510E0
2.747026004E1,-6.096593738E-1,2.524571896E0,1.996078491E-1,2.604801547E0
2.748817660E1,-5.490876436E-1,2.003763676E0,2.881535530E0,3.552437631E0
2.750608584E1,-1.275437027E-1,4.897632599E-1,4.628759384E0,4.656345013E0
2.752400900E1,-1.854196787E-1,-1.500385284E0,4.430994987E0,4.681800192E0
2.754192587E1,1.293737143E-1,-2.104471207E0,1.121113300E0,2.387976476E0
2.755983890E1,-1.200225234E0,-1.633724689E0,-1.320966244E0,2.419617488E0
2.757776230E1,-7.477315664E-1,-8.812227249E-1,-2.297839642E0,2.572104781E0
2.759567483E1,-1.105778337E0,2.151432037E-1,-2.487501144E0,2.730694833E0
2.761359140E1,-5.800824761E-1,2.661375999E-1,-1.719182491E0,1.833824784E0
2.763150760E1,-2.226916254E-1,7.276434898E-1,-8.925833702E-1,1.172928677E0
2.764942447E1,4.931053221E-1,8.352451324E-1,-3.141856194E-1,1.019558676E0
2.766734030E1,3.263545632E-1,-1.118817329E-1,1.112532616E0,1.164797684E0
2.768525723E1,7.912550569E-1,4.786973000E-1,5.586376190E-1,1.080421982E0
2.770317337E1,6.023797393E-1,1.340737343E0,1.006717205E0,1.781549186E0
2.772109018E1,1.522685438E-1,5.411810875E-1,2.647011280E0,2.706054581E0
2.773899417E1,1.453424096E-1,-2.660617828E-1,2.695627213E0,2.712622229E0
2.775692239E1,-9.925165772E-2,-6.624217033E-1,-6.894984245E-1,9.612811670E-1
2.777483902E1,-4.025975466E-1,-1.179969311E0,-2.665583134E0,2.942744604E0
2.779275564E1,-4.850634933E-1,-9.585318565E-1,-2.279294968E0,2.519772899E0
2.781067172E1,-7.923985124E-1,-9.155097008E-1,-1.521548748E0,1.944521537E0
2.782858255E1,-9.067761302E-1,-5.153489113E-1,-5.267181396E-1,1.168443173E0
2.784650180E1,-9.884008169E-1,-1.794300079E-1,9.355239868E-1,1.372711343E0
2.786442410E1,-7.748983502E-1,5.310916901E-1,1.592644215E0,1.849065015E0
2.788233700E1,-2.080158591E-1,9.775047302E-1,2.655769825E0,2.837586908E0
2.790025369E1,5.125820041E-1,1.281451225E0,3.228719711E0,3.511337142E0
2.791816995E1,1.018989563E0,7.692780495E-1,2.122238636E0,2.476696444E0
2.793608682E1,1.022583246E0,2.061181068E-1,1.079845428E-2,1.043205529E0
2.795400247E1,6.984452009E-1,-3.554587364E-1,-2.093394279E0,2.235279898E0
2.797191946E1,1.589896977E-1,-3.453907967E-1,-2.640648127E0,2.667882129E0
2.798983578E1,-4.244137704E-1,-5.350790024E-1,-2.037333012E0,2.148758336E0
2.800775253E1,-6.458383799E-1,-6.952891350E-1,-8.095221519E-1,1.247341296E0
2.802566824E1,-6.222248673E-1,-6.892662048E-1,-2.075524330E-1,9.514881498E-1
2.804358481E1,-5.661123991E-1,-3.922452927E-1,6.994566917E-1,9.816207423E-1
2.806150027E1,-2.369441688E-1,1.390218735E-1,2.101064205E0,2.118947950E0
2.807941903E1,-7.032378018E-2,3.932580948E-1,3.616230965E0,3.638230855E0
2.809733377E1,4.028696120E-1,6.315197945E-1,3.511364937E0,3.590376707E0
2.811525058E1,4.777772725E-1,-7.006168365E-3,1.434541225E0,1.512028021E0
2.813316684E1,5.477324128E-1,3.477096558E-3,-1.269825459E0,1.382924286E0
2.815108328E1,3.530484438E-1,-3.984875679E-1,-2.597426891E0,2.651426409E0
2.816899692E1,1.508995295E-1,1.953854561E-1,-2.104889870E0,2.119317699E0
2.818691873E1,-1.621766537E-1,7.167396545E-1,-1.386611462E0,1.569301865E0
2.820483261E1,-5.878814459E-1,1.090005875E0,7.841944695E-1,1.465837087E0
2.822274936E1,-3.847747445E-1,8.633961678E-1,1.895299435E0,2.117938737E0
2.824065335E1,-1.006338373E-1,6.179981232E-1,2.486657143E0,2.564276232E0
2.825857901E1,4.008900523E-1,-3.374013901E-1,2.556108952E0,2.609261486E0
2.827650070E1,5.813544989E-1,-1.519704819E0,8.791995049E-1,1.849450610E0
2.829441488E1,5.744306445E-1,-1.945881844E0,-2.142708778E0,2.950868961E0
2.831233059E1,2.672484145E-3,-1.607618809E0,-2.827959299E0,3.252967749E0
2.833024740E1,-4.706074893E-1,-1.304974556E-1,-1.390035152E0,1.473329128E0
2.834816360E1,-7.945067883E-1,1.041085243E0,1.829340935E0,2.249797274E0
2.836608047E1,-2.865200341E-1,2.168292046E0,3.532993793E0,4.155193048E0
2.838399630E1,3.665946126E-1,1.370110035E0,3.331628799E0,3.620958930E0
2.840191006E1,7.823087573E-1,-2.509927750E-2,1.438217163E-1,7.958150863E-1
2.841983230E1,1.009342909E0,-1.347606182E0,-2.885503054E0,3.340799815E0
2.843774612E1,5.425603390E-1,-1.536945820E0,-4.034289837E0,4.351099707E0
2.845566195E1,-2.288666964E-1,-1.009529591E0,-3.003247261E0,3.176637227E0
2.847357840E1,-8.075212836E-1,3.228187561E-1,-7.406077385E-1,1.142279473E0
2.849149490E1,-9.624211788E-1,8.429360390E-1,1.984921932E0,2.361506038E0
2.850941153E1,-4.220778942E-1,9.016566277E-1,3.419215679E0,3.561203488E0
2.852732742E1,1.725284159E-1,6.393923759E-1,3.387007236E0,3.451145706E0
2.854524417E1,6.990445852E-1,-5.849423409E-1,2.347826004E0,2.518552723E0
2.856314804E1,1.128782749E0,-1.146370411E0,-5.514721870E-1,1.700716669E0
2.858107528E1,8.053776026E-1,-1.477288246E0,-2.489193678E0,3.004513074E0
2.859899515E1,2.522137165E-1,-3.772473335E-1,-2.889971733E0,2.925382698E0
2.861690976E1,-4.532757998E-1,6.765165329E-1,-8.920397758E-1,1.207836302E0
2.863482620E1,-5.878299475E-1,1.619903088E0,1.370743752E0,2.201946524E0
2.865274203E1,-2.442651689E-1,1.426483154E0,2.997154236E0,3.328280814E0
2.867066140E1,1.406639516E-1,6.378283501E-1,2.636111736E0,2.715823344E0
2.868857535E1,2.914829850E-1,-4.981536865E-1,6.703214645E-1,8.845622035E-1
2.870649173E1,2.654232681E-1,-9.827623367E-1,-7.607378960E-1,1.270823933E0
2.872440829E1,9.063977748E-2,-3.657593727E-1,-6.292185783E-1,7.334245069E-1
2.874232425E1,-1.771167517E-1,-1.444497108E-1,5.765581131E-2,2.357122298E-1
2.876024106E1,-1.953680366E-1,3.531007767E-1,-1.662664413E-1,4.364554476E-1
2.877815725E1,-2.496393323E-1,-4.348754883E-2,1.760449409E-1,3.085494845E-1
2.879607089E1,3.685498983E-2,1.385593414E-1,3.100132942E-1,3.415629136E-1
2.881398977E1,1.247695088E-1,-4.314265251E-1,1.183891296E-1,4.644483426E-1
2.883190658E1,2.053807825E-1,-1.977624893E-1,1.541800499E-1,3.241338547E-1
2.884982303E1,1.768031865E-1,1.690840721E-1,5.933408737E-1,6.417960600E-1
2.886773965E1,3.588698804E-2,5.754113197E-1,8.696417809E-1,1.043390095E0
2.888565530E1,7.714169100E-3,5.938124657E-1,3.867292404E-1,7.086834683E-1
2.890357168E1,-1.503117681E-1,-2.988100052E-2,-1.178116798E-1,1.933031136E-1
2.892148898E1,-7.551807165E-2,-3.813185692E-1,-1.280984879E-1,4.092872499E-1
2.893940512E1,-2.236206979E-1,-9.033727646E-1,-6.859087944E-1,1.156096641E0
2.895732046E1,-5.462814122E-3,-4.263415337E-1,-9.769945145E-1,1.065980876E0
2.897523941E1,-7.669811696E-2,-3.612332344E-1,6.905636787E-1,7.831029595E-1
2.899315011E1,3.119268715E-1,4.800615311E-1,9.512381554E-1,1.110230370E0
2.901107492E1,3.758271635E-1,6.670126915E-1,1.176529884E0,1.403700309E0
2.902898660E1,4.024275839E-1,8.382596970E-1,1.693911076E0,1.932346245E0
2.904690341E1,2.575975060E-1,4.585881233E-1,1.117145538E0,1.234776780E0
2.906481961E1,5.920249224E-2,6.248950958E-3,-6.170110703E-1,6.198763145E-1
2.908273355E1,-2.647407949E-1,-3.785662651E-1,-8.883805275E-1,1.001309177E0
2.910065524E1,-6.336101294E-1,-6.838665009E-1,-9.688172340E-1,1.344522971E0
2.911856894E1,-6.467527747E-1,2.915945053E-1,-1.125967503E0,1.330834071E0
2.913648538E1,-1.040023088E0,3.830561638E-1,7.808227539E-1,1.355752272E0
2.915440194E1,-4.534213245E-1,7.127480507E-1,2.553895950E0,2.689978663E0
2.917231796E1,-2.760572135E-1,1.584243774E-1,2.284978867E0,2.307040158E0
2.919023471E1,3.540478647E-2,-9.643077850E-2,1.156106472E0,1.160661263E0
2.920815091E1,2.069037557E-1,-6.581044197E-1,2.645921707E-2,6.903699599E-1
2.922607107E1,1.438422948E-1,-6.792845726E-1,-1.361126900E0,1.528000188E0
2.924398355E1,-3.027283549E-1,7.666158676E-2,-1.091742992E0,1.135528167E0
2.926190017E1,-6.829227209E-1,2.216649055E-1,2.215080261E-1,7.513884340E-1
2.927981637E1,-5.138063803E-3,7.495799065E-1,1.201224804E0,1.415922832E0
2.929772427E1,-2.342951670E-2,4.569578171E-2,8.179836273E-1,8.195939612E-1
2.931564895E1,1.393935382E-1,1.741151810E-1,-8.936977386E-2,2.402781955E-1
2.933356576E1,-2.107451260E-1,-5.308442116E-1,-1.139650345E-1,5.824063137E-1
2.935148227E1,-2.969032824E-1,-2.538018227E-1,-8.344950676E-1,9.213842532E-1
2.936939902E1,-8.873344660E-1,-2.519240379E-1,5.826854706E-2,9.242420673E-1
2.938731204E1,-1.037989974E0,-6.858110428E-2,5.864882469E-1,1.194192203E0
