"Time (s)","Linear Acceleration x (m/s^2)","Linear Acceleration y (m/s^2)","Linear Acceleration z (m/s^2)","Absolute acceleration (m/s^2)"
8.947042300E-2,1.393516064E-1,-9.000682831E-1,-5.168919563E-1,1.047243562E0
1.073880870E-1,-3.552761078E-1,-8.972730637E-1,-7.452607155E-1,1.219316857E0
1.253058110E-1,1.089916229E-1,-9.018797874E-1,-5.328025818E-1,1.053159492E0
1.432226210E-1,3.320095539E-1,-1.019382954E0,-9.553861618E-1,1.436013464E0
1.611408940E-1,3.081986904E-1,-1.185215950E0,-1.008764744E0,1.586609463E0
1.790581920E-1,3.993644714E-1,-1.150722027E0,-5.626783371E-1,1.341737707E0
1.969760380E-1,8.556648493E-1,-1.035172939E0,1.995277405E-1,1.357776369E0
2.148929090E-1,1.036027312E0,-8.612332344E-1,6.172533035E-1,1.481916636E0
2.327958020E-1,4.426391125E-1,-7.033672333E-1,2.809810638E-1,8.772714557E-1
2.507282360E-1,-2.963662148E-1,-8.658356667E-1,2.425355911E-1,9.467459257E-1
2.686461430E-1,-3.444702625E-1,-1.108576775E0,9.341058731E-1,1.490018795E0
2.865634410E-1,8.881330490E-3,-8.920252323E-1,1.626073837E0,1.854697824E0
3.044808600E-1,-2.026557922E-1,-5.912752151E-1,1.168386459E0,1.325067043E0
3.223985240E-1,-1.118296146E0,-9.831137657E-1,2.337694168E-1,1.507231597E0
3.403164310E-1,-8.497786522E-1,-5.648620129E-1,1.103754044E0,1.503151968E0
3.582332410E-1,-1.065227032E0,-2.506594658E-1,1.559061050E0,1.904786118E0
3.761513320E-1,-1.386278629E0,-1.746959686E-1,5.050458908E-1,1.485718167E0
3.940655160E-1,-9.641442299E-1,-7.543087006E-3,-7.296037674E-1,1.209112340E0
4.119897720E-1,-1.396352768E0,-2.466239929E-1,-5.950417519E-1,1.537757826E0
4.299034680E-1,7.965981960E-2,1.480636597E-1,-7.548060417E-1,7.733050464E-1
4.478211920E-1,2.025710583E0,-1.229633093E0,-8.877816200E-1,2.530544825E0
4.657386730E-1,8.128110766E-1,-2.146716356E0,6.468915939E-1,2.384852552E0
4.836557250E-1,7.156258225E-1,-3.855524063E-1,3.113317490E-1,8.704587491E-1
5.015747930E-1,9.610894918E-1,3.029465675E-1,-2.083034992E0,2.313980210E0
5.194916640E-1,-1.267158985E-1,-7.757520676E-2,-2.363427639E0,2.368093122E0
5.374090830E-1,-1.290660143E0,-1.920154333E0,-4.353204250E0,4.929825911E0
5.553195440E-1,-2.718317747E0,-4.396791935E0,1.343555450E-1,5.170984636E0
5.732441660E-1,-2.061865807E0,-2.564479351E0,-1.221937180E0,3.510124701E0
5.911613410E-1,-7.145439982E-1,-1.557847500E0,8.934650421E-1,1.932806700E0
6.090790660E-1,2.928088307E-1,-2.468735933E0,1.501183510E0,2.904125695E0
6.269948370E-1,1.111445069E0,-2.332602024E0,1.053406715E0,2.790341924E0
6.449161020E-1,6.907113791E-1,-1.968393564E0,-5.136375427E-1,2.148366579E0
6.628319960E-1,1.094661713E0,-2.747314930E0,-2.559932232E0,3.911428974E0
6.807494150E-1,1.966720343E0,-2.691883802E0,-2.101325035E0,3.940785989E0
6.986674450E-1,1.942083001E0,-2.613541842E0,-2.085130215E0,3.866530144E0
7.165843150E-1,9.979130030E-1,-2.505798340E0,-1.862688541E0,3.277874965E0
7.345010010E-1,1.086669922E0,-1.926913977E0,-2.186171055E0,3.110175698E0
7.524204960E-1,1.764327049E0,-3.465337515E0,-2.989728451E0,4.905088199E0
7.703373670E-1,6.949083805E-1,-4.546951294E0,-1.487247944E0,4.834208330E0
7.882544810E-1,-1.205384493E0,-4.110502243E0,-8.471364975E-1,4.366557078E0
8.061722670E-1,-1.496714234E0,-2.751776695E0,-1.272610664E0,3.381119102E0
8.240901740E-1,5.226731300E-3,-1.968787670E0,-9.815216064E-2,1.971239726E0
8.420074110E-1,1.960393786E-1,-3.003552675E0,1.327254295E0,3.289584180E0
8.599246470E-1,-4.851645827E-1,-4.086644650E0,1.708393097E-1,4.118887621E0
8.778323010E-1,-1.039028764E0,-2.890775204E0,1.246809006E0,3.315221674E0
8.957597910E-1,-6.133442521E-1,-1.970174551E0,2.700376511E0,3.398501469E0
9.136777600E-1,-6.601557136E-1,-1.173686743E0,2.065613747E0,2.465787154E0
9.315946300E-1,1.300866961E0,1.171200037E0,1.196712494E0,2.120397409E0
9.495125380E-1,3.076978922E-1,1.232121587E0,-3.547363281E-1,1.318574784E0
9.674194590E-1,-6.979870796E-2,-1.536654472E0,2.528109550E0,2.959310177E0
9.853459730E-1,-1.133614540E0,-3.572345257E0,5.237008095E0,6.439952356E0
1.003264002E0,-7.083810568E-1,-2.948061943E0,4.773995399E0,5.655431462E0
1.021174220E0,-2.528301477E-1,-1.142174959E0,2.186852455E0,2.480082737E0
1.039089198E0,1.006973505E0,2.374269068E-1,2.326629639E0,2.546286051E0
1.057018275E0,5.220053196E-1,7.176008224E-1,1.812416077E0,2.017992202E0
1.074935206E0,4.524326324E-2,9.290872812E-1,1.511134148E0,1.774479231E0
1.092852931E0,2.185547352E-1,3.422570229E-2,2.065584183E0,2.077396348E0
1.110770716E0,-4.401140213E-1,-1.370059252E-1,2.111228943E0,2.160962430E0
1.128688136E0,1.630277634E-1,4.294789433E-1,1.317250252E0,1.395054995E0
1.146591273E0,1.657323360E0,1.088195682E0,7.450571060E-1,2.118018096E0
1.164512965E0,1.954444170E0,1.366491199E0,2.800941467E-2,2.384939147E0
1.182429774E0,1.740326166E0,4.200999439E-1,-1.506079674E0,2.339550194E0
1.200347254E0,7.282490730E-1,-1.202257514E0,8.461046219E-1,1.640628804E0
1.218264186E0,2.616610527E-1,-7.016893625E-1,3.264541626E-1,8.169496853E-1
1.236182276E0,8.928384781E-1,1.861429214E-1,3.719291687E-1,9.849573806E-1
1.254099757E0,5.180525780E-2,-1.928575039E-1,1.446018219E0,1.459741926E0
1.272017115E0,-9.249603748E-2,-6.009675264E-1,1.765658379E0,1.867422554E0
1.289942775E0,-2.693675756E-1,-2.445143461E-1,1.427811623E0,1.473428718E0
1.307852565E0,-4.767028093E-1,7.429109812E-1,5.992326736E-1,1.066884292E0
1.325770411E0,-5.612503290E-1,8.854405880E-1,3.919801712E-1,1.119220899E0
1.343701563E0,-8.622205257E-1,5.934216380E-1,1.074448586E0,1.500004413E0
1.361615931E0,-6.279793382E-1,1.902294159E-2,2.897768021E-1,6.918746393E-1
1.379526210E0,-1.340659142E0,-1.010765553E0,-2.882385254E-1,1.703553751E0
1.397450037E0,-1.788027287E0,-1.037538528E0,1.692212105E0,2.671536933E0
1.415370387E0,-3.354308605E-1,5.676382780E-2,2.808666229E0,2.829194582E0
1.433286036E0,-3.663917780E-1,-1.076811552E-1,1.034637451E0,1.102865731E0
1.451203761E0,-1.445291638E0,-7.249231339E-1,-8.421068192E-1,1.823053857E0
1.469109583E0,-2.682726383E0,-1.907330513E0,-7.054262161E-1,3.366386294E0
1.487039210E0,-1.663039804E0,-2.722876310E0,1.449158669E0,3.504257073E0
1.504956446E0,-8.908176422E-2,-2.225277424E0,2.732565880E0,3.525154105E0
1.522874171E0,1.219850063E0,-1.083075285E0,1.204839706E0,2.027985446E0
1.540791712E0,1.644694805E0,-5.498721600E-1,-4.679718018E-1,1.796212126E0
1.558709437E0,7.893872261E-2,-4.880475402E-1,1.599304199E0,1.673975999E0
1.576626612E0,-4.511332512E-1,-6.270162463E-1,2.701011658E0,2.809294317E0
1.594544337E0,-4.468683004E-1,-1.924737096E-1,5.866966248E-1,7.622009816E-1
1.612462062E0,-7.508932948E-1,-1.166457415E0,1.227618217E0,1.852433569E0
1.630377284E0,9.170329571E-2,-6.880503297E-1,-5.901756287E-1,9.111147147E-1
1.648298853E0,-3.061342239E-1,3.595549166E-1,1.669216156E-1,5.008599873E-1
1.666214503E0,-1.451373100E-2,6.812106967E-1,7.474222183E-1,1.011384513E0
1.684131922E0,1.074645519E-1,5.791940689E-1,2.313259125E0,2.387086546E0
1.702049647E0,1.383789778E0,1.266602755E0,3.092613220E0,3.617100112E0
1.719968286E0,1.439129472E0,1.909022689E0,1.716793060E0,2.943270235E0
1.737883265E0,8.940312862E-1,1.264363170E0,-3.392677307E-1,1.585247223E0
1.755801966E0,-6.198058128E-1,-8.976391554E-1,-3.434181213E-1,1.143613267E0
1.773720118E0,-8.435398340E-1,-1.868437648E0,4.372129440E-1,2.096133072E0
1.791631007E0,-6.070040464E-1,-1.762762070E0,1.499471664E-1,1.870365788E0
1.809551417E0,3.420478106E-1,-1.220592737E0,3.395376205E-1,1.312299177E0
1.827475489E0,-4.642412961E-1,-9.240353107E-1,5.093574524E-2,1.035352929E0
1.845390345E0,-2.469366550E0,-1.572730899E0,-7.653474808E-1,3.026055255E0
1.863307521E0,-2.801853418E0,-3.703462124E0,-3.995218277E-1,4.661076268E0
1.881213282E0,-2.894857883E0,-3.707470417E0,-6.583446503E0,8.091186990E0
1.899143091E0,-1.597379208E0,-1.865965366E0,-8.475484848E0,8.824244471E0
1.917059900E0,-7.842693925E-1,-5.762751102E-1,-7.139718056E0,7.205743917E0
1.934977443E0,6.137506008E0,-5.774044394E-1,-2.049295616E1,2.140008477E1
1.952895167E0,-6.109833717E-2,-5.516171455E-1,-9.869395256E0,9.884987466E0
1.970809840E0,3.700463772E-1,-4.841152728E-1,-9.767379761E0,9.786368546E0
1.982035528E0,4.809407890E-1,-4.717863500E-1,-9.687363625E0,9.710762091E0
1.999916742E0,1.735334039E0,-3.665961027E-1,-9.081364632E0,9.252943343E0
2.017848811E0,2.554001808E0,-2.873520255E-1,1.160420322E1,1.188541244E1
2.035765101E0,4.851837456E-1,-1.595725894E0,-1.529230309E1,1.538298664E1
2.053682581E0,-1.207136154E0,-3.065446377E0,2.532830048E1,2.554167074E1
2.071600336E0,1.824474484E-1,-4.291345477E-1,-7.312911510E0,7.327763526E0
2.089517297E0,4.005802274E-1,-1.134047270E0,3.727705956E0,3.916927293E0
2.107435236E0,-1.873592734E-1,-8.614840508E-1,1.289637566E0,1.562185430E0
2.125349635E0,-4.108807817E-2,-6.382678151E-1,1.560163498E-1,6.583427188E-1
2.143270197E0,4.813541658E-3,-6.410810351E-1,8.391189575E-2,6.465672974E-1
2.161174525E0,-6.025363132E-2,-6.201874018E-1,-4.403400421E-2,6.246614338E-1
2.179105250E0,-3.197422996E-2,-6.184974909E-1,-5.359077454E-2,6.216377311E-1
2.197021144E0,2.353281248E-3,-6.069508791E-1,-5.948066711E-2,6.098629824E-1
2.214942164E0,-7.402669638E-3,-5.855380893E-1,-8.465290070E-2,5.916720097E-1
2.232857875E0,-4.486750066E-2,-6.173056960E-1,3.437042236E-3,6.189436390E-1
2.250775873E0,-8.637262881E-2,-6.414895058E-1,-2.211570740E-3,6.472819386E-1
2.268678186E0,-1.070363447E-1,-6.330518126E-1,8.249282837E-4,6.420374266E-1
2.286609125E0,-5.921933055E-2,-6.387466192E-1,9.911537170E-3,6.415624765E-1
2.304529749E0,-3.168175742E-2,-6.494810581E-1,3.551673889E-2,6.512225559E-1
2.322445734E0,-3.134028986E-2,-6.422061324E-1,-5.823135376E-3,6.429967645E-1
2.340363276E0,-3.683970869E-2,-6.529800892E-1,2.707481384E-3,6.540240756E-1
2.358280969E0,-4.704053700E-2,-6.247557402E-1,-4.768276215E-2,6.283360508E-1
2.376198451E0,-1.213075221E-2,-6.090084910E-1,-1.641368866E-2,6.093503971E-1
2.394115961E0,-3.736052196E-3,-5.834860206E-1,-2.163124084E-2,5.838987968E-1
2.412033900E0,-3.462448344E-2,-6.009724736E-1,-4.854011536E-2,6.039229352E-1
2.429950922E0,-2.641051635E-2,-5.882992744E-1,-8.790016174E-3,5.889573975E-1
2.447868617E0,-2.879955061E-2,-5.983513594E-1,1.344299316E-2,5.991948577E-1
2.465786096E0,-1.660899073E-2,-6.411589384E-1,1.245975494E-2,6.414950416E-1
2.483703791E0,-3.449018300E-2,-6.525383592E-1,-2.083492279E-2,6.537812913E-1
2.501605951E0,-4.972541705E-3,-6.598919034E-1,1.582813263E-2,6.601004318E-1
2.519539027E0,-8.278923109E-3,-6.269292831E-1,2.520370483E-2,6.274903134E-1
2.537456537E0,-5.530892313E-2,-6.347615719E-1,-2.001285553E-2,6.374808581E-1
2.555373988E0,-7.049908489E-2,-6.175553203E-1,-2.837944031E-2,6.222138597E-1
2.573291498E0,-8.946248144E-2,-6.262091398E-1,-1.215362549E-2,6.326840704E-1
2.591208735E0,-6.605026126E-2,-5.936554074E-1,-2.929306030E-2,5.980363393E-1
2.609125147E0,-7.398070395E-2,-6.192638278E-1,1.142978668E-2,6.237719720E-1
2.627045405E0,-6.904613227E-2,-6.010264158E-1,1.453399658E-3,6.049811842E-1
2.644961908E0,-1.618434303E-2,-5.994933844E-1,-3.592205048E-2,6.007866881E-1
2.662879176E0,3.230464831E-2,-5.982196927E-1,4.648971558E-2,6.008924069E-1
2.680783381E0,3.906566650E-2,-5.775128603E-1,-1.965522766E-2,5.791662612E-1
2.698715784E0,3.907307051E-3,-6.024955511E-1,-4.647254944E-2,6.042978190E-1
2.716632043E0,-1.045366004E-2,-6.213632226E-1,-1.822090149E-2,6.217182116E-1
2.734549525E0,-4.836842045E-2,-6.102706790E-1,-2.658653259E-2,6.127614948E-1
2.752466791E0,-5.305847526E-2,-6.027607918E-1,8.350372314E-3,6.051491573E-1
2.770384486E0,-4.276753217E-2,-5.852859020E-1,6.518459320E-2,5.904554853E-1
2.788302210E0,-5.899445340E-2,-6.008603573E-1,3.039360046E-2,6.045140904E-1
2.806219477E0,-6.646275520E-2,-6.242659688E-1,3.554058075E-2,6.287991973E-1
2.824137416E0,-5.639191344E-2,-6.517703533E-1,4.745578766E-2,6.559243044E-1
2.842054865E0,-6.485567987E-2,-6.592606306E-1,5.086898804E-3,6.624626139E-1
2.859972437E0,-6.097367778E-2,-6.542563438E-1,-2.053470612E-1,6.884305109E-1
2.877890101E0,-5.589421093E-2,-6.159431338E-1,8.430480957E-4,6.184745893E-1
2.895807612E0,-2.855686657E-2,-5.131894350E-1,-7.409572601E-2,5.192967046E-1
2.913727014E0,-2.050681971E-2,-5.786076784E-1,4.072761536E-2,5.804016832E-1
2.931641047E0,-6.509256363E-2,-6.016464829E-1,9.939002991E-2,6.132649593E-1
2.949561487E0,-7.620085031E-2,-6.432064772E-1,1.260480881E-1,6.598554860E-1
2.967477533E0,-2.080441080E-2,-6.592375040E-1,1.579093933E-1,6.782051951E-1
2.985391871E0,1.557561848E-2,-5.840656161E-1,-4.394817352E-2,5.859237884E-1
3.003302454E0,7.857739925E-2,-5.746449232E-1,-7.290267944E-2,5.845562386E-1
3.021216883E0,2.856105939E-2,-5.948342681E-1,-6.853103638E-2,5.994497840E-1
3.039149256E0,-1.284598559E-2,-6.018295884E-1,-1.106290817E-1,6.120479283E-1
3.057065637E0,-6.708625704E-2,-5.791161060E-1,-2.022075653E-2,5.833394459E-1
3.074983119E0,-4.564945400E-2,-5.522486567E-1,-1.049041748E-3,5.541331537E-1
3.092888879E0,-3.004764579E-2,-5.869264603E-1,2.205276489E-2,5.881087104E-1
3.110818110E0,-3.564272821E-2,-5.970333815E-1,-8.041191101E-2,6.034777031E-1
3.128735560E0,-7.146742940E-2,-6.265313625E-1,-3.763771057E-2,6.317165020E-1
3.146653254E0,-5.289889872E-2,-5.898488760E-1,-8.626842499E-2,5.984665664E-1
3.164570795E0,-4.995437339E-2,-5.608989596E-1,-2.959442139E-2,5.638961891E-1
3.182488307E0,-2.806872688E-2,-5.616805553E-1,4.333114624E-2,5.640483028E-1
3.200405939E0,-6.702109426E-2,-5.802240968E-1,-1.582336426E-2,5.842963361E-1
3.218323451E0,-5.603619292E-2,-5.697780252E-1,-4.723167419E-2,5.744718304E-1
3.236240931E0,-1.825937256E-2,-5.701524019E-1,-1.304149628E-2,5.705937668E-1
3.254159327E0,-3.256468102E-2,-5.755705237E-1,-1.558399200E-2,5.767016101E-1
3.272075495E0,-1.459428947E-2,-6.579214334E-1,1.195907593E-3,6.580843685E-1
3.289992701E0,-4.497530684E-2,-6.579657793E-1,5.409145355E-2,6.617156718E-1
3.307912256E0,-2.072079480E-2,-6.453399658E-1,2.646827698E-2,6.462148192E-1
3.325816889E0,-1.611525565E-2,-6.115203500E-1,3.611183167E-2,6.127976047E-1
3.343745050E0,7.674632594E-3,-5.827437043E-1,-2.024841309E-2,5.831458850E-1
3.361665522E0,-3.518775851E-2,-5.664861798E-1,-6.509876251E-2,5.712990628E-1
3.379581537E0,-4.330691695E-2,-5.840011835E-1,-6.560707092E-2,5.892683253E-1
3.397499262E0,-2.443531156E-2,-5.418850183E-1,-2.278232574E-2,5.429138900E-1
3.415420130E0,-4.329870269E-2,-5.216715336E-1,-1.283740997E-2,5.236227322E-1
3.433333552E0,-3.402046114E-2,-5.300689936E-1,1.382732391E-2,5.313395568E-1
3.451252558E0,-6.671750546E-2,-5.390008688E-1,3.430652618E-2,5.441967474E-1
3.469169184E0,-4.585286975E-2,-5.626027584E-1,3.016853333E-2,5.652738185E-1
3.547554590E0,-3.255887330E-2,-6.263190508E-1,-5.109596252E-2,6.292427441E-1
3.565477991E0,-3.253460675E-2,-6.117681265E-1,1.585197449E-2,6.128376835E-1
3.583394435E0,-6.112641841E-2,-6.254192591E-1,-8.120536804E-3,6.284517736E-1
3.601309962E0,-5.160234123E-2,-6.293832660E-1,-1.774406433E-2,6.317443699E-1
3.619227442E0,-6.105075032E-2,-5.803815722E-1,-3.632259369E-2,5.847130017E-1
3.637145472E0,-3.734026104E-2,-5.797717571E-1,-4.653167725E-2,5.828334088E-1
3.655062464E0,-1.345844567E-2,-5.549486876E-1,-3.701686859E-2,5.563446990E-1
3.672968348E0,-2.310662717E-2,-5.399815440E-1,-4.124259949E-2,5.420469870E-1
3.690897913E0,-2.726181597E-2,-5.393152237E-1,1.135730743E-2,5.401232318E-1
3.708815333E0,-4.227831587E-2,-5.577645898E-1,-3.654289246E-2,5.605570235E-1
3.726732569E0,-5.118773878E-2,-5.569614172E-1,6.477355957E-3,5.593461906E-1
3.744650294E0,-4.732562602E-2,-5.419267416E-1,-5.099296570E-2,5.463740392E-1
3.762567835E0,-5.639731139E-2,-5.747010112E-1,-3.189659119E-2,5.783418552E-1
3.780482569E0,-5.149537325E-2,-5.834251046E-1,-4.152011871E-2,5.871631344E-1
3.798405664E0,-2.292205766E-2,-6.015855670E-1,-3.679656982E-2,6.031455900E-1
3.816320521E0,2.865060233E-4,-5.913108587E-1,-4.162597656E-2,5.927742704E-1
3.834237940E0,-9.169045836E-3,-6.003773808E-1,-4.644393921E-2,6.022409072E-1
3.852152552E0,3.876448609E-4,-5.710353851E-1,-5.605506897E-2,5.737802124E-1
3.870071864E0,-9.091295302E-3,-5.655724406E-1,-3.695392609E-2,5.668513296E-1
3.887991602E0,-4.255224019E-2,-5.408375263E-1,-4.657554626E-2,5.445045496E-1
3.905908351E0,-6.093497574E-2,-5.496941209E-1,-2.747726440E-2,5.537433502E-1
3.923826136E0,-8.470514417E-2,-5.297544599E-1,-2.274131775E-2,5.369654707E-1
3.941743068E0,-5.098089203E-2,-5.482785106E-1,1.148223877E-3,5.506447992E-1
3.959660792E0,-6.042407453E-2,-5.570088029E-1,-2.283191681E-2,5.607416265E-1
3.977578578E0,-4.590237886E-2,-5.656704307E-1,-1.810169220E-2,5.678184003E-1
3.995496058E0,-2.210748568E-2,-5.888674259E-1,-3.310203552E-2,5.902112596E-1
4.013413172E0,-2.219365910E-2,-6.024173498E-1,-3.793907166E-2,6.040187042E-1
4.031330958E0,-1.744406484E-2,-6.017154455E-1,-2.362442017E-2,6.024316443E-1
4.049248499E0,-3.649800643E-2,-5.865147114E-1,-1.410579681E-2,5.878184963E-1
4.067165858E0,-3.630254418E-2,-5.761645436E-1,4.988670349E-3,5.773286264E-1
4.085083643E0,-3.142540902E-2,-5.514900684E-1,7.572174072E-4,5.523852146E-1
4.103001185E0,-5.099881813E-2,-5.076206923E-1,-5.672073364E-2,5.133194797E-1
4.120918849E0,-1.254531089E-2,-5.070409775E-1,-3.761291504E-2,5.085888998E-1
4.138836695E0,-2.659633011E-2,-5.110171437E-1,-2.809143066E-2,5.124792820E-1
4.156753565E0,-2.651123330E-2,-5.198773146E-1,-8.993148804E-3,5.206305258E-1
4.174668788E0,-1.214395463E-2,-5.335540175E-1,-1.860523224E-2,5.340164042E-1
4.192588771E0,-4.961107299E-2,-5.567117333E-1,-4.294395447E-3,5.589343919E-1
4.210506800E0,-4.977907240E-2,-5.803231597E-1,1.957702637E-2,5.827831378E-1
4.228423671E0,-1.021690443E-1,-5.843454599E-1,-5.704021454E-2,5.959460682E-1
4.246341456E0,-6.368976086E-2,-6.169767380E-1,2.366542816E-2,6.207066403E-1
4.264249598E0,-4.446852952E-2,-5.821127892E-1,-1.885318756E-2,5.841131672E-1
4.282178431E0,-2.583586238E-2,-5.621777773E-1,-4.282951355E-2,5.643985403E-1
4.300092555E0,2.872765996E-3,-5.469946861E-1,-3.330802917E-2,5.480153869E-1
4.318011866E0,-2.098344825E-2,-5.271074772E-1,-8.061218262E-2,5.336486874E-1
4.335929408E0,2.819483168E-3,-5.256568193E-1,-6.630611420E-2,5.298297292E-1
4.353847071E0,-1.659570634E-2,-5.062870979E-1,-5.678462982E-2,5.097318287E-1
4.371763819E0,-2.126857266E-2,-5.103991628E-1,-3.349494934E-2,5.119390288E-1
4.389681727E0,-5.893986672E-2,-5.096163154E-1,1.969718933E-2,5.133913478E-1
4.407589869E0,-8.737360686E-2,-5.285363197E-1,1.964855194E-2,5.360698220E-1
4.425517237E0,-5.380615219E-2,-5.516658425E-1,4.771709442E-2,5.563337352E-1
4.443430262E0,-3.927299380E-2,-5.646032691E-1,4.597663879E-3,5.659861818E-1
4.461352015E0,1.356792636E-2,-5.780084729E-1,-8.440017700E-4,5.781683109E-1
4.479269740E0,4.247134551E-3,-5.864984393E-1,-1.466655731E-2,5.866971667E-1
4.497186915E0,-1.962349750E-2,-5.663636923E-1,-3.865432739E-2,5.680203083E-1
4.515090418E0,-3.443463147E-2,-5.416932106E-1,-4.348373413E-2,5.445255856E-1
4.533011500E0,-6.790123880E-2,-5.266689062E-1,-4.830932617E-2,5.332208792E-1
4.550928553E0,-5.816090852E-2,-5.116654038E-1,-3.877544403E-2,5.164181560E-1
4.568860072E0,-7.665202022E-2,-5.206273198E-1,-9.499549866E-3,5.263255454E-1
4.586773767E0,-5.270484835E-2,-5.246335268E-1,-1.433181763E-2,5.274689939E-1
4.604692042E0,-4.780049995E-2,-5.287379622E-1,-1.496982574E-2,5.311052779E-1
4.622610072E0,-1.959800534E-2,-5.472208858E-1,-2.936553955E-2,5.483585638E-1
4.640524927E0,-1.017539762E-2,-5.415677428E-1,-2.463150024E-2,5.422230810E-1
4.658432948E0,4.066530615E-3,-5.313570499E-1,-2.466964722E-2,5.319449621E-1
4.676350855E0,-5.060574040E-3,-5.449431539E-1,8.187294006E-3,5.450281480E-1
4.694268519E0,-2.417828515E-2,-5.393932462E-1,1.292705536E-2,5.400895965E-1
4.712186671E0,-4.306055605E-2,-5.290719271E-1,1.348209381E-2,5.309925445E-1
4.730104335E0,-2.363807708E-2,-5.378701687E-1,-1.527690887E-2,5.386060351E-1
4.748021510E0,-3.355572373E-2,-5.133200288E-1,-2.967071533E-2,5.152705987E-1
4.765938563E0,-3.346145526E-2,-5.077048540E-1,-4.407596588E-2,5.107118351E-1
4.783856531E0,-3.346757591E-2,-5.262001753E-1,-8.239936829E-2,5.336631512E-1
4.801774379E0,-2.859161049E-2,-5.205598474E-1,-1.063766479E-1,5.320864837E-1
4.819691615E0,-9.277119301E-3,-5.287697911E-1,-1.351356506E-1,5.458435683E-1
4.837609278E0,-2.838286385E-2,-5.334874392E-1,-1.399593353E-1,5.522708124E-1
4.855540796E0,-3.307341784E-2,-5.516631603E-1,-1.208724976E-1,5.657174684E-1
4.873454737E0,-4.258978367E-2,-5.459713340E-1,-1.592102051E-1,5.703038459E-1
4.891372706E0,-5.692077056E-2,-5.259543061E-1,-1.784038544E-1,5.582972698E-1
4.909282862E0,-3.789737821E-2,-5.005939007E-1,-2.071657181E-1,5.430912441E-1
4.927207239E0,-2.888520993E-2,-4.950355887E-1,-2.544679642E-1,5.573585330E-1
4.945126124E0,-9.833975695E-3,-4.990390539E-1,-2.311840057E-1,5.500752030E-1
4.963044703E0,-1.959915459E-2,-5.029271841E-1,-2.641363144E-1,5.684081913E-1
4.980958766E0,-1.453382988E-2,-5.356242657E-1,-2.456388474E-1,5.894429824E-1
4.998869044E0,-4.910536110E-3,-5.348281860E-1,-2.983255386E-1,6.124242230E-1
5.016795314E0,-3.341823816E-2,-5.337032080E-1,-3.414602280E-1,6.344690537E-1
5.034713099E0,-1.914769411E-2,-5.375230312E-1,-4.085159302E-1,6.754131391E-1
5.052630580E0,-2.901414223E-2,-5.364429355E-1,-4.516477585E-1,7.018536466E-1
5.070548487E0,-3.375459835E-2,-5.061028004E-1,-5.037498474E-1,7.148729441E-1
5.088462550E0,-3.848040104E-2,-5.054557920E-1,-5.372867584E-1,7.386767626E-1
5.106380335E0,-3.342922032E-2,-5.044868588E-1,-5.660543442E-1,7.589743237E-1
5.124303553E0,-5.102248862E-3,-5.030817389E-1,-6.139574051E-1,7.937637963E-1
5.142218714E0,-1.453066710E-2,-4.879434407E-1,-6.612586975E-1,8.219263998E-1
5.160135341E0,-1.939382590E-2,-5.157690644E-1,-6.619081497E-1,8.393546610E-1
5.178053187E0,-1.947387680E-2,-5.198181868E-1,-7.187795639E-1,8.872622164E-1
5.195970851E0,-3.345558420E-2,-5.236433744E-1,-7.284040451E-1,8.977160535E-1
5.213888636E0,-1.907179132E-2,-5.132361054E-1,-7.428073883E-1,9.030713423E-1
5.231793787E0,-2.853607759E-2,-5.125593543E-1,-7.045602798E-1,8.717434183E-1
5.249723353E0,-2.334363014E-2,-5.211006403E-1,-6.525735855E-1,8.354298815E-1
5.267641017E0,-1.360704470E-2,-5.153607726E-1,-6.807432175E-1,8.539281034E-1
5.285559046E0,9.000925347E-4,-5.047325492E-1,-7.238731384E-1,8.824670401E-1
5.303464014E0,2.890106104E-2,-5.081365705E-1,-8.100585938E-1,9.566780916E-1
5.321393641E0,-2.370904014E-2,-5.025236011E-1,-9.100046158E-1,1.039807910E0
5.339308558E0,-1.911165752E-2,-5.112485290E-1,-9.393644333E-1,1.069647537E0
5.357231898E0,-8.605978638E-2,-5.056794882E-1,-9.914512634E-1,1.116285644E0
5.375146143E0,-7.623052597E-2,-5.102679729E-1,-9.579954147E-1,1.088089937E0
5.393063624E0,-5.708594993E-2,-5.095248222E-1,-9.101810455E-1,1.044654912E0
5.410981165E0,-3.771055862E-2,-4.985249043E-1,-9.341545105E-1,1.059525279E0
5.428899622E0,1.017134823E-2,-5.119693875E-1,-9.300174713E-1,1.061672552E0
5.446815455E0,9.650308639E-3,-4.775167108E-1,-1.001853943E0,1.109876867E0
5.464734095E0,2.888549305E-2,-5.004976392E-1,-9.875497818E-1,1.107513806E0
5.482651759E0,1.936884038E-2,-4.564977586E-1,-9.493150711E-1,1.053548509E0
5.500564417E0,-8.850505576E-3,-4.701229334E-1,-8.823566437E-1,9.998235597E-1
5.518483729E0,-3.272532299E-2,-4.794862270E-1,-8.632574081E-1,9.880239579E-1
5.536406946E0,-5.671799555E-2,-5.120065808E-1,-9.350957870E-1,1.067600956E0
5.554321681E0,-5.243839324E-2,-4.962095022E-1,-1.011114120E0,1.127530674E0
5.572239710E0,-6.108108908E-2,-5.191401243E-1,-1.021337509E0,1.147330674E0
5.590156580E0,-3.703520447E-2,-5.275805593E-1,-9.735431671E-1,1.107925607E0
5.608074183E0,-4.152490944E-2,-5.271601677E-1,-9.353122711E-1,1.074444603E0
5.625992152E0,-7.690655999E-3,-5.068696141E-1,-8.683748245E-1,1.005510213E0
5.643909815E0,6.754572503E-3,-4.960691333E-1,-8.355398178E-1,9.717288698E-1
5.661826808E0,-7.386820391E-3,-5.091625452E-1,-9.073925018E-1,1.040510555E0
5.679744776E0,2.067600377E-2,-4.881991744E-1,-1.012742996E0,1.124461786E0
5.697662318E0,1.162991859E-2,-5.016246438E-1,-9.314365387E-1,1.057987034E0
5.715580042E0,2.935358509E-2,-4.286292791E-1,-1.131868362E0,1.210665388E0
5.733492762E0,-5.182068795E-2,-4.670848548E-1,-1.021822929E0,1.124711405E0
5.751414942E0,-6.148947775E-2,-4.378407001E-1,-9.931373596E-1,1.087109585E0
5.769332484E0,-1.462592185E-1,-4.813771546E-1,-8.304634094E-1,9.709712655E-1
5.787250452E0,-9.799917042E-2,-5.189070106E-1,-7.593173981E-1,9.248952557E-1
5.805167323E0,-5.927969143E-2,-5.464790463E-1,-8.263769150E-1,9.924979776E-1
5.823084925E0,3.108170629E-2,-5.154141784E-1,-1.003505707E0,1.128557288E0
5.841000025E0,8.305318654E-2,-4.799264371E-1,-1.117835999E0,1.219337745E0
5.858921472E0,1.027877256E-1,-4.784696996E-1,-1.070655823E0,1.177201113E0
5.876839259E0,7.422732562E-2,-4.486335516E-1,-9.750013351E-1,1.075829616E0
5.894755519E0,1.246002130E-2,-4.435123205E-1,-8.930969238E-1,9.972364544E-1
5.912669947E0,1.182092354E-2,-4.091958106E-1,-9.170684814E-1,1.004288577E0
5.930590906E0,-4.547394067E-2,-4.183125496E-1,-9.595642090E-1,1.047767503E0
5.948507227E0,-6.453442574E-2,-4.466191530E-1,-1.021799088E0,1.117007939E0
5.966425746E0,-1.069202870E-1,-4.994992614E-1,-9.787473679E-1,1.104028020E0
5.984343165E0,-5.392964184E-2,-5.420109034E-1,-9.841594696E-1,1.124835138E0
6.002260951E0,-8.633302152E-2,-5.609909892E-1,-8.986549377E-1,1.062894622E0
6.020178065E0,-2.874532342E-2,-5.306842327E-1,-8.795633316E-1,1.027659332E0
6.038095912E0,-3.254754096E-2,-5.294358134E-1,-8.604841232E-1,1.010838538E0
6.056013331E0,1.977180876E-2,-5.182066560E-1,-9.418945312E-1,1.075218290E0
6.073932399E0,5.452752113E-3,-4.834509790E-1,-9.658889771E-1,1.080137074E0
6.091847010E0,-8.996421471E-3,-4.583782852E-1,-9.605636597E-1,1.064365601E0
6.109766017E0,1.922927983E-2,-4.476771057E-1,-9.701929092E-1,1.068671529E0
6.127683558E0,-9.471269324E-3,-3.797515929E-1,-9.654560089E-1,1.037500016E0
6.145599024E0,-2.806461602E-2,-4.361300468E-1,-9.230375290E-1,1.021271423E0
6.163518946E0,-4.743171483E-2,-4.885294437E-1,-9.374370575E-1,1.058158316E0
6.181421778E0,-3.878039122E-2,-3.921728730E-1,-1.003840446E0,1.078424371E0
6.199356897E0,-6.715191901E-2,-4.302763939E-1,-1.008637428E0,1.098633978E0
6.217271937E0,-2.915380523E-2,-4.202732146E-1,-9.560174942E-1,1.044724350E0
6.235181544E0,-5.781801790E-2,-4.198406637E-1,-9.464683533E-1,1.037020467E0
6.253103663E0,-5.672233179E-3,-4.099103808E-1,-9.321298599E-1,1.018295031E0
6.271027002E0,8.427260444E-3,-4.626222849E-1,-8.514003754E-1,9.690061901E-1
6.288941920E0,1.319861598E-2,-4.756084085E-1,-8.801527023E-1,1.000523034E0
6.306859034E0,-2.024591714E-2,-5.135287642E-1,-8.658447266E-1,1.006880718E0
6.324765223E0,1.296618953E-2,-5.171807408E-1,-9.233312607E-1,1.058387763E0
6.342694544E0,-2.981890924E-2,-5.017083287E-1,-9.377431870E-1,1.063937357E0
6.360612513E0,3.611737862E-3,-4.956714511E-1,-9.090929031E-1,1.035448279E0
6.378529444E0,-5.796706304E-3,-4.561582208E-1,-8.517274857E-1,9.662057928E-1
6.396447413E0,-2.001042105E-2,-4.454410076E-1,-8.894720078E-1,9.949766634E-1
6.414364955E0,-1.954920404E-2,-4.584343135E-1,-8.709955215E-1,9.844680745E-1
6.432282374E0,6.992369890E-6,-4.137261212E-1,-9.135189056E-1,1.002839017E0
6.450199671E0,-4.392405972E-3,-4.558249414E-1,-9.859504700E-1,1.086229257E0
6.468117518E0,9.507406503E-3,-4.166596532E-1,-9.997520447E-1,1.083143485E0
6.486032740E0,-2.331717871E-2,-5.027087927E-1,-9.573144913E-1,1.081531718E0
6.503955469E0,-3.758052364E-2,-4.058656096E-1,-9.375991821E-1,1.022365598E0
6.521870021E0,-5.104847997E-2,-4.823314846E-1,-8.520898819E-1,9.804625312E-1
6.539788050E0,6.166825071E-3,-4.047842026E-1,-9.238929749E-1,1.008695449E0
6.557705226E0,-6.530836970E-2,-4.336063266E-1,-9.191312790E-1,1.018372200E0
6.575623499E0,-1.698733680E-2,-4.472193420E-1,-8.521690369E-1,9.625413118E-1
6.593540431E0,-4.528933018E-2,-4.464758337E-1,-8.426332474E-1,9.546845464E-1
6.611458155E0,-2.089262940E-2,-4.265181720E-1,-8.570289612E-1,9.575243565E-1
6.629375941E0,2.721050195E-2,-4.249997437E-1,-8.522882462E-1,9.527646342E-1
6.647283656E0,2.263053134E-2,-4.486057758E-1,-8.290033340E-1,9.428710468E-1
6.665207850E0,1.811694726E-2,-3.705201447E-1,-8.332347870E-1,9.120820202E-1
6.683131983E0,-1.942436025E-2,-4.371176660E-1,-7.806406021E-1,8.949016199E-1
6.701047266E0,-5.748549476E-3,-4.120358527E-1,-8.237686157E-1,9.210870328E-1
6.718959132E0,-2.905423008E-2,-4.784917831E-1,-7.813520432E-1,9.166839969E-1
6.736884852E0,-2.485356294E-2,-4.336719811E-1,-8.382377625E-1,9.441036136E-1
6.754798731E0,-2.018228546E-2,-4.805402458E-1,-8.723831177E-1,9.961819896E-1
6.772716517E0,-2.994216792E-2,-4.224127531E-1,-8.143911362E-1,9.179117551E-1
6.790634486E0,-4.347340390E-2,-4.313697815E-1,-8.096351624E-1,9.184110852E-1
6.808551417E0,-3.859065846E-2,-4.408491254E-1,-7.528390884E-1,8.732719412E-1
6.826469386E0,-5.270710960E-2,-4.975667596E-1,-7.241582870E-1,8.802022179E-1
6.844386866E0,-2.866190113E-2,-4.345060885E-1,-6.667709351E-1,7.963670795E-1
6.862304652E0,1.921923831E-2,-5.152163506E-1,-7.535419464E-1,9.130403781E-1
6.880210170E0,-3.799288720E-2,-4.189087451E-1,-7.093029022E-1,8.246445315E-1
6.898137721E0,7.181278616E-2,-4.936903715E-1,-6.818437576E-1,8.448657698E-1
6.916059351E0,-4.738876969E-2,-4.551647902E-1,-6.286430359E-1,7.775684846E-1
6.933975306E0,6.656827778E-2,-3.963203132E-1,-5.712556839E-1,6.984512744E-1
6.951891993E0,-3.330860287E-2,-4.254534245E-1,-4.947214127E-1,6.533523977E-1
6.969809962E0,-5.114182830E-3,-4.049790204E-1,-4.804010391E-1,6.283464969E-1
6.987727687E0,-3.890299425E-2,-3.809656501E-1,-4.469347000E-1,5.885566205E-1
7.005645533E0,-5.336461216E-2,-3.514171839E-1,-4.326181412E-1,5.599109528E-1
7.023556300E0,-2.867029049E-2,-4.993736744E-1,-3.812189102E-1,6.289069166E-1
7.041480433E0,-3.323182464E-2,-3.687413931E-1,-3.998022079E-1,5.449003346E-1
7.059388087E0,-9.178649634E-3,-5.017747879E-1,-3.908739090E-1,6.361168117E-1
7.077313440E0,-9.014798328E-3,-3.907664120E-1,-3.903198242E-1,5.523850292E-1
7.095235743E0,2.464392595E-2,-4.664595127E-1,-3.622446060E-1,5.911116262E-1
7.113150843E0,-1.339735091E-2,-4.464147389E-1,-3.718576431E-1,5.811572204E-1
7.131068263E0,2.429545298E-2,-3.494715095E-1,-3.617181778E-1,5.035480564E-1
7.148986536E0,-3.718953952E-2,-4.502131939E-1,-3.186912537E-1,5.528463593E-1
7.166903529E0,1.042358577E-3,-3.387763202E-1,-2.230148315E-1,4.055935117E-1
7.184821437E0,-9.397719800E-2,-4.444738925E-1,-1.991224289E-1,4.960226774E-1
7.202738978E0,-6.050210819E-2,-4.580708444E-1,-1.566848755E-1,4.878929737E-1
7.220657130E0,-4.587525129E-2,-4.137892723E-1,-1.327848434E-1,4.369873170E-1
7.238574183E0,-4.594141617E-2,-4.607703090E-1,-2.237529755E-1,5.142813290E-1
7.256492091E0,-1.730509475E-2,-4.551202953E-1,-1.765336990E-1,4.884650411E-1
7.274409388E0,2.098794468E-2,-4.539886117E-1,-1.765871048E-1,4.875747727E-1
7.292327296E0,3.541637957E-2,-4.338576794E-1,-1.521053314E-1,4.611104398E-1
7.310244532E0,1.167190261E-2,-3.994422257E-1,-1.186466217E-1,4.168541062E-1
7.328161891E0,2.591368556E-2,-3.887620270E-1,-8.998489380E-2,3.998808746E-1
7.346079981E0,-4.582955316E-2,-3.637167215E-1,-6.550979614E-2,3.723999662E-1
7.363997706E0,6.684949622E-3,-3.578925133E-1,-5.658435822E-2,3.623996816E-1
7.381905970E0,-7.402729988E-2,-4.006445110E-1,-2.791118622E-2,4.083810716E-1
7.399832911E0,-4.067093134E-2,-3.275952935E-1,-7.041358948E-2,3.375364789E-1
7.417750514E0,-8.746366203E-2,-4.329180419E-1,-4.036903381E-3,4.416833932E-1
7.435668116E0,-1.494064927E-3,-3.406414688E-1,-2.799797058E-2,3.417934008E-1
7.453585658E0,-7.702945173E-2,-4.076780379E-1,-2.802276611E-2,4.158367401E-1
7.471498683E0,4.468843341E-3,-4.022278190E-1,2.399158478E-2,4.029674739E-1
7.489417262E0,-3.363152593E-2,-3.825215995E-1,3.413581848E-2,3.855114885E-1
7.507341944E0,3.341532499E-2,-4.147353172E-1,1.915073395E-2,4.165197689E-1
7.525256434E0,-3.788367286E-2,-4.631568193E-1,9.569168091E-2,4.744536961E-1
7.543173853E0,9.252880700E-3,-4.044096470E-1,3.344631195E-2,4.058958415E-1
7.561091700E0,-4.763653874E-2,-4.517724812E-1,4.775333405E-2,4.567800297E-1
7.579006556E0,-5.152057856E-3,-3.878917098E-1,1.899242401E-2,3.883905694E-1
7.596929407E0,4.349578172E-3,-3.916530609E-1,-1.964569092E-4,3.916772620E-1
7.614844386E0,-9.887434542E-3,-3.713618517E-1,9.324073792E-3,3.716104474E-1
7.632761866E0,-2.735331655E-4,-3.942511082E-1,9.063339233E-2,4.045348229E-1
7.650679957E0,-2.860622108E-2,-3.696111143E-1,7.624721527E-2,3.784763262E-1
7.668597071E0,-4.251258448E-3,-3.543466926E-1,6.663703918E-2,3.605830649E-1
7.686515040E0,-1.781571284E-2,-4.307833910E-1,1.096754074E-1,4.448824840E-1
7.704423060E0,-3.275990859E-2,-3.148483336E-1,4.325294495E-2,3.194894396E-1
7.722347498E0,-2.698465995E-2,-4.099723995E-1,1.191997528E-1,4.278014975E-1
7.740270289E0,-5.048488826E-2,-4.052058160E-1,1.239614487E-1,4.267398716E-1
7.758185511E0,-2.622485161E-2,-4.086441100E-1,1.143589020E-1,4.251537486E-1
7.776103236E0,6.664272398E-3,-3.744687736E-1,8.561515808E-2,3.841890553E-1
7.794021021E0,-9.276673943E-2,-4.172541797E-1,1.238632202E-1,4.450267585E-1
7.811936793E0,2.144874819E-2,-3.632065356E-1,8.554172516E-2,3.737598467E-1
7.829856897E0,-7.414316759E-3,-3.957740664E-1,5.200195312E-2,3.992446454E-1
7.847773707E0,3.122522123E-2,-3.610683680E-1,9.980678558E-2,3.759079345E-1
7.865691615E0,-2.229657024E-3,-3.601461053E-1,4.712486267E-2,3.632229910E-1
7.883601893E0,-7.006766275E-3,-3.401769400E-1,8.537387848E-2,3.507964429E-1
7.901523890E0,-2.332823351E-3,-3.821743131E-1,9.908580780E-2,3.948172298E-1
7.919447290E0,-6.907927990E-2,-3.528266549E-1,5.658721924E-2,3.639515197E-1
7.937362269E0,-1.635460369E-2,-3.471501768E-1,6.612110138E-2,3.537693010E-1
7.955279200E0,-5.893144757E-2,-3.659986258E-1,5.651187897E-2,3.749953360E-1
7.973197169E0,-1.073846966E-2,-3.504662514E-1,3.734588623E-2,3.526139863E-1
7.991114955E0,-4.799612984E-2,-3.791298568E-1,8.936309814E-2,3.924650814E-1
8.009032740E0,-3.731288016E-4,-4.065360427E-1,5.104923248E-2,4.097288339E-1
8.026950099E0,-2.349787392E-2,-4.158732295E-1,1.275854111E-1,4.356383021E-1
8.044867823E0,-2.399580181E-2,-3.572049439E-1,2.765750885E-2,3.590767442E-1
8.062771692E0,-8.860837668E-3,-4.238362312E-1,9.880256653E-2,4.352902624E-1
8.080706080E0,5.045479164E-3,-3.839738369E-1,3.654956818E-2,3.857424467E-1
8.098620509E0,-2.748473547E-2,-3.981262445E-1,7.958698273E-2,4.069324331E-1
8.170277796E0,-8.276134729E-3,-3.629709482E-1,6.518650055E-2,3.688708223E-1
8.188199305E0,6.265409291E-3,-3.525757194E-1,3.165435791E-2,3.540492785E-1
8.206112513E0,-2.723794244E-2,-3.517723680E-1,5.554771423E-2,3.571711815E-1
8.224031580E0,3.533336520E-2,-3.316423297E-1,2.891540527E-3,3.335317714E-1
8.241952784E0,-4.574981332E-2,-3.652805090E-1,5.132675171E-2,3.716952127E-1
8.259868861E0,-7.167171687E-3,-3.315043449E-1,3.695964813E-2,3.336353019E-1
8.277786341E0,-3.976039216E-2,-3.890686929E-1,7.941436768E-2,3.990764067E-1
8.295703699E0,-4.022104293E-2,-3.596302867E-1,5.067062378E-2,3.654027744E-1
8.313621424E0,-2.986849099E-2,-3.829412460E-1,6.918907166E-2,3.902861160E-1
8.331542383E0,-2.556092665E-2,-3.530319035E-1,5.540561676E-2,3.582661974E-1
8.349468348E0,-2.443382144E-2,-4.053216279E-1,7.869815826E-2,4.136133868E-1
8.367386195E0,1.805538684E-2,-3.751927018E-1,8.345031738E-2,3.847850256E-1
8.385303431E0,-5.174092948E-3,-4.035104215E-1,8.819580078E-2,4.130689177E-1
8.403221339E0,3.729587421E-3,-3.590667844E-1,7.440471649E-2,3.667136857E-1
8.421138941E0,-5.523484200E-3,-3.533853889E-1,7.436943054E-2,3.611683183E-1
8.439057093E0,-1.013439149E-2,-3.286236227E-1,4.083633423E-2,3.313061989E-1
8.456971095E0,-1.939819008E-2,-3.231837749E-1,5.516719818E-2,3.284318223E-1
8.474895044E0,-5.713714659E-2,-3.127537370E-1,4.137516022E-2,3.206110687E-1
8.492809718E0,-1.377383620E-2,-3.213921189E-1,1.681137085E-2,3.221261164E-1
8.510727747E0,-2.801576629E-2,-3.300765157E-1,3.591823578E-2,3.332049055E-1
8.528644740E0,-1.352088898E-2,-3.293049037E-1,1.674461365E-2,3.300074486E-1
8.546562892E0,-1.816239953E-2,-3.763286471E-1,2.628231049E-2,3.776822517E-1
8.564480433E0,-4.246532172E-2,-3.619433641E-1,3.582763672E-2,3.661829078E-1
8.582398463E0,-1.356817782E-2,-3.605543375E-1,3.041172028E-2,3.620889372E-1
8.600315577E0,-3.268749639E-2,-3.554788530E-1,2.618885040E-2,3.579379041E-1
8.618239283E0,-2.257839218E-2,-3.879079521E-1,3.990554810E-2,3.906082639E-1
8.636147853E0,-1.362802088E-2,-3.623691201E-1,2.550697327E-2,3.635212619E-1
8.654072474E0,-9.038675576E-3,-3.660191894E-1,2.546024323E-2,3.670149433E-1
8.671986293E0,-9.074911475E-3,-3.315706551E-1,3.080654144E-2,3.331223444E-1
8.689904200E0,1.024270244E-2,-3.689819872E-1,2.060317993E-2,3.696986758E-1
8.707821986E0,-2.777233720E-2,-3.012580276E-1,-1.232624054E-2,3.027864562E-1
8.725740260E0,5.546117201E-3,-3.576811254E-1,4.446315765E-2,3.604767944E-1
8.743657130E0,-2.307381108E-2,-3.233107924E-1,-3.426551819E-3,3.241512155E-1
8.761575221E0,-1.830450445E-2,-3.517981768E-1,3.482437134E-2,3.539911706E-1
8.779492823E0,9.448975325E-4,-3.026258349E-1,1.297950745E-3,3.026300935E-1
8.797410914E0,-2.297707647E-2,-3.545365930E-1,6.054878235E-3,3.553319622E-1
8.815328028E0,-8.335091174E-3,-3.157171905E-1,6.034851074E-3,3.158848486E-1
8.833245753E0,-3.213750944E-2,-3.538696170E-1,2.514839172E-2,3.562147764E-1
8.851151881E0,-3.262128681E-3,-3.476612866E-1,1.189231873E-3,3.476786245E-1
8.869077418E0,-1.769873500E-2,-3.228051066E-1,3.465175629E-2,3.251417019E-1
8.887003260E0,1.288186759E-3,-3.698445559E-1,1.547622681E-2,3.701704587E-1
8.904916773E0,-4.168621823E-2,-3.504735827E-1,2.980136871E-2,3.541999359E-1
8.922834376E0,1.278225332E-3,-3.538800180E-1,3.455638885E-2,3.555655284E-1
8.940752467E0,-3.628258035E-2,-3.534695506E-1,6.861495972E-2,3.618910907E-1
8.958668238E0,-3.331106156E-3,-3.518595099E-1,1.114940643E-2,3.520518716E-1
8.976589015E0,2.069202438E-2,-2.792325318E-1,2.547454834E-2,2.811546181E-1
8.994505274E0,2.072928473E-2,-3.404604793E-1,9.107589722E-4,3.410921733E-1
9.012423365E0,2.071300149E-2,-2.775838375E-1,-3.261375427E-2,2.802596515E-1
9.030335841E0,-2.692814544E-2,-2.815205455E-1,-1.769161224E-2,2.833583168E-1
9.048256556E0,3.535638005E-2,-2.904433012E-1,-2.309989929E-2,2.934978538E-1
9.066178004E0,-5.075819418E-2,-2.850871086E-1,-3.209495544E-2,2.913436801E-1
9.084094447E0,-2.663090825E-2,-3.036603630E-1,7.858276367E-4,3.048268998E-1
9.102011378E0,-5.958032608E-2,-3.466110229E-1,2.468681335E-2,3.525598605E-1
9.119929408E0,-3.602508083E-2,-3.316240311E-1,1.509284973E-2,3.339163047E-1
9.137847376E0,-5.419497937E-2,-3.644090891E-1,5.813789368E-2,3.729759975E-1
9.155765162E0,7.635055110E-3,-3.439955711E-1,9.658813477E-3,3.442158330E-1
9.173682277E0,-2.530157939E-2,-3.774029016E-1,4.313087463E-2,3.807011852E-1
9.191606410E0,1.263251342E-2,-3.329666257E-1,2.396106720E-2,3.340665906E-1
9.209518092E0,2.203107253E-2,-3.709127009E-1,3.828239441E-2,3.735333205E-1
9.227436243E0,-6.836943328E-3,-3.264104128E-1,1.492023468E-2,3.268227574E-1
9.245353175E0,2.621356025E-2,-3.446157873E-1,2.864265442E-2,3.467961840E-1
9.263260218E0,-2.614767104E-2,-2.960908711E-1,-1.385402679E-2,2.975658561E-1
9.281189173E0,7.115254179E-3,-3.189196885E-1,5.247116089E-3,3.190422022E-1
9.299106959E0,-5.953347683E-2,-2.756578028E-1,1.060295105E-2,2.822124761E-1
9.317024379E0,-2.602520958E-2,-3.129636347E-1,5.183219910E-3,3.140866345E-1
9.334942347E0,-2.591171861E-2,-2.732421756E-1,-9.204864502E-3,2.746223465E-1
9.352848170E0,-1.136372238E-2,-3.250969946E-1,5.124092102E-3,3.253358978E-1
9.370777674E0,-1.572290435E-2,-3.006343842E-1,-3.317928314E-2,3.028681355E-1
9.388695277E0,2.268398926E-2,-3.238781095E-1,-1.465892792E-2,3.250022728E-1
9.406613307E0,-3.952980787E-2,-3.240190744E-1,-4.506111145E-3,3.264525560E-1
9.424531031E0,2.746198699E-2,-3.035875857E-1,-3.452301025E-4,3.048273316E-1
9.442446497E0,-4.849975184E-2,-3.465237916E-1,1.398658752E-2,3.501807943E-1
9.460363123E0,-1.115342230E-2,-3.171420991E-1,3.788852692E-2,3.195920061E-1
9.478286891E0,-4.465821758E-2,-3.259036839E-1,-1.418495178E-2,3.292548867E-1
9.496201869E0,-3.918224573E-2,-3.298157752E-1,2.825641632E-2,3.333348451E-1
9.514119959E0,-6.312694401E-3,-3.336100578E-1,-4.940032959E-4,3.336701438E-1
9.532036952E0,-2.083574608E-2,-2.986657023E-1,-4.711151123E-3,2.994286643E-1
9.549955348E0,2.219345421E-2,-2.979735732E-1,-4.736900330E-3,2.988364736E-1
9.567872767E0,1.249721460E-2,-3.164401650E-1,8.996963501E-3,3.168146205E-1
9.585790797E0,-4.015862197E-2,-2.534336746E-1,-1.436233521E-2,2.569973132E-1
9.603708155E0,3.654906526E-2,-3.292764127E-1,1.372909546E-2,3.315829884E-1
9.621626002E0,-2.080259845E-2,-2.237527221E-1,-2.875232697E-2,2.265496084E-1
9.639543849E0,-1.607906446E-2,-3.432975411E-1,-6.618499756E-4,3.436745206E-1
9.657461939E0,-4.500177875E-2,-2.704018950E-1,-1.443958282E-2,2.745010865E-1
9.675378871E0,-2.035235614E-2,-3.326566219E-1,3.758525848E-2,3.353912613E-1
9.693296961E0,-5.414078757E-2,-2.985137999E-1,4.662513733E-3,3.034195983E-1
9.711215113E0,-1.987429336E-2,-3.407258093E-1,4.710578918E-2,3.445403025E-1
9.729132838E0,-4.852003232E-2,-3.303808272E-1,1.836395264E-2,3.344292440E-1
9.747050257E0,-5.806371570E-3,-3.392035663E-1,3.981590271E-3,3.392766223E-1
9.764967921E0,-2.483452484E-2,-3.190919757E-1,-8.373260498E-4,3.200580318E-1
9.782883448E0,-2.504339814E-2,-3.181384504E-1,3.912925720E-3,3.191466064E-1
9.800806544E0,1.782715507E-2,-3.071489632E-1,-2.004337311E-2,3.083180661E-1
9.818721400E0,-1.107402891E-2,-2.685129046E-1,1.342201233E-2,2.690761314E-1
9.836639369E0,-6.444238126E-3,-3.057599068E-1,1.338577271E-2,3.061206097E-1
9.854551783E0,-1.597639918E-2,-2.276260555E-1,2.292346954E-2,2.293345851E-1
9.872471888E0,-1.105151698E-2,-2.896979153E-1,3.246879578E-2,2.917211697E-1
9.890395227E0,-6.024390459E-3,-2.407225370E-1,4.336357117E-3,2.408369513E-1
9.908310206E0,2.742878720E-2,-2.786834836E-1,1.329898834E-2,2.803456536E-1
9.926227992E0,-3.919171169E-2,-2.979392111E-1,3.711700439E-3,3.005287682E-1
9.944146082E0,-2.491588145E-2,-2.879198790E-1,-2.501773834E-2,2.900767917E-1
9.962063380E0,-2.016096562E-2,-3.161701262E-1,-1.703262329E-3,3.168168467E-1
9.979981165E0,-2.502575517E-2,-2.774611115E-1,-5.906105042E-3,2.786500295E-1
9.997899195E0,-1.568355411E-2,-3.292783201E-1,-2.089023590E-2,3.303128637E-1
1.001581704E1,-3.022934496E-2,-2.949232161E-1,-1.553630829E-2,2.968752155E-1
1.003373440E1,7.769366726E-3,-3.178856373E-1,2.973556519E-3,3.179944708E-1
1.005165231E1,-1.145546883E-2,-2.834971547E-1,-6.030082703E-3,2.837925764E-1
1.006957022E1,4.585181177E-2,-3.202063739E-1,-6.661415100E-3,3.235411643E-1
1.008748031E1,-1.669810340E-2,-2.722672820E-1,2.262687683E-2,2.737156829E-1
1.010540383E1,2.609271556E-2,-2.805795074E-1,-6.111145020E-3,2.818564100E-1
1.012332504E1,-2.172825858E-2,-2.802899182E-1,-1.355171204E-3,2.811341174E-1
1.014124154E1,-3.133861721E-2,-2.411640882E-1,-1.383781433E-3,2.431956851E-1
1.015915963E1,-3.108768910E-2,-2.932074070E-1,-2.533054352E-2,2.959369263E-1
1.017707223E1,7.200552151E-3,-2.159174681E-1,-4.387855530E-2,2.204484715E-1
1.019499056E1,-6.874793768E-2,-3.212594390E-1,-1.424789429E-3,3.285360499E-1
1.021291659E1,-2.130956948E-2,-2.390123755E-1,-1.997756958E-2,2.407906075E-1
1.023083084E1,-1.146012917E-2,-3.348618150E-1,2.188110352E-2,3.357715777E-1
1.024874777E1,-1.216734946E-2,-2.675110698E-1,3.622531891E-2,2.702267392E-1
1.026665408E1,7.503757253E-3,-3.143917918E-1,2.662086487E-2,3.156060449E-1
1.028458364E1,6.778838113E-3,-3.087044358E-1,1.701927185E-2,3.092475335E-1
1.030250198E1,6.180221215E-3,-2.935500145E-1,3.134727478E-2,2.952836903E-1
1.032041915E1,-2.280811220E-2,-2.782649398E-1,2.234268188E-2,2.800906677E-1
1.033833712E1,5.610143766E-3,-2.869943976E-1,2.171611786E-2,2.878694978E-1
1.035625491E1,-2.316994220E-2,-2.670517266E-1,4.143047333E-2,2.712378200E-1
1.037417306E1,-1.368775219E-2,-2.328360379E-1,1.269340515E-2,2.335831707E-1
1.039209030E1,-2.798631042E-2,-2.751940489E-1,1.207065582E-2,2.768766853E-1
1.041000826E1,-2.330586314E-2,-2.459519506E-1,7.866859436E-3,2.471789083E-1
1.042792623E1,-8.862894028E-3,-2.742827535E-1,-7.101058960E-3,2.745177677E-1
1.044584426E1,5.897618830E-4,-2.443936169E-1,-2.626228333E-2,2.458013331E-1
1.046376144E1,5.257165059E-3,-2.778845131E-1,-2.628231049E-2,2.791741397E-1
1.048167947E1,-3.775854409E-2,-2.918078303E-1,-2.629566193E-2,2.954132349E-1
1.049958541E1,-2.333075181E-2,-2.770664394E-1,1.197624207E-2,2.783048081E-1
1.051751120E1,-3.741290420E-3,-3.193670511E-1,1.781463623E-3,3.193939326E-1
1.053543704E1,-3.768708929E-2,-2.469885647E-1,1.193237305E-2,2.501320638E-1
1.055335055E1,-1.339915767E-2,-3.323403895E-1,3.045082092E-2,3.340013838E-1
1.057126852E1,-3.765898570E-2,-2.598361969E-1,3.102493286E-2,2.643777504E-1
1.058916848E1,-2.351510525E-2,-3.069109917E-1,1.185607910E-2,3.080387696E-1
1.060710287E1,-1.450982690E-2,-2.392838597E-1,2.619361877E-2,2.411501737E-1
1.062502279E1,5.362480879E-4,-3.054919541E-1,2.138328552E-2,3.062398839E-1
1.064293966E1,-3.343888000E-2,-2.233791649E-1,1.238632202E-2,2.262074954E-1
1.066085800E1,1.926308498E-2,-2.754041553E-1,2.612590790E-2,2.773104366E-1
1.067877505E1,-3.329325840E-2,-2.462127805E-1,7.567405701E-3,2.485687831E-1
1.069669332E1,3.423541784E-6,-2.213904113E-1,7.556915283E-3,2.215193472E-1
1.071461111E1,-2.401286736E-2,-2.647094727E-1,1.173210144E-2,2.660551915E-1
1.073252908E1,2.391041443E-2,-2.208388895E-1,-7.415771484E-3,2.222532715E-1
1.075044644E1,-4.258602113E-2,-2.737065554E-1,6.928443909E-3,2.770863601E-1
1.076836453E1,-4.252408445E-2,-2.588386536E-1,1.169776917E-2,2.625691988E-1
1.078628219E1,-3.790595755E-2,-3.156142831E-1,1.107883453E-2,3.180754280E-1
1.080420047E1,-5.254416913E-2,-2.434493005E-1,-2.690315247E-3,2.490696478E-1
1.082211837E1,-3.281417117E-2,-3.193040490E-1,2.061653137E-2,3.216471466E-1
1.084003268E1,-9.614206851E-3,-2.898935378E-1,-3.333091736E-3,2.900720699E-1
1.085795657E1,-1.446072757E-2,-2.843706608E-1,-1.771259308E-2,2.852884879E-1
1.087587161E1,-1.394007728E-2,-2.690861821E-1,2.532958984E-2,2.706349705E-1
1.089378878E1,1.414067857E-2,-2.969708443E-1,-8.196830750E-3,2.974202904E-1
1.091171017E1,4.437988624E-3,-2.481923699E-1,-1.301097870E-2,2.485727938E-1
1.092962179E1,-6.237737834E-4,-2.473256588E-1,-1.782417297E-2,2.479678845E-1
1.094754568E1,-5.572538823E-3,-2.275806069E-1,-1.245975494E-2,2.279895422E-1
1.096546176E1,-4.858380929E-2,-2.126579285E-1,-2.905845642E-3,2.181564232E-1
1.098336422E1,-3.884660080E-2,-2.313949466E-1,6.653785706E-3,2.347274005E-1
1.100130166E1,-2.436456829E-2,-2.023011297E-1,-2.928733826E-3,2.037840935E-1
1.101921340E1,-3.372678533E-2,-2.117908597E-1,-2.685832977E-2,2.161347593E-1
1.103713235E1,-1.886688918E-2,-3.023161888E-1,1.560115814E-2,3.033058418E-1
1.105504977E1,-5.790783837E-2,-1.969004571E-1,-4.601860046E-2,2.103350170E-1
1.107296731E1,4.801658913E-3,-3.205498457E-1,-1.792621613E-2,3.210866063E-1
1.109088552E1,-2.432031184E-2,-2.530953884E-1,-3.582954407E-3,2.542864345E-1
1.110880288E1,1.401074044E-2,-3.099256754E-1,-1.855564117E-2,3.107966167E-1
1.112672091E1,-4.998296499E-3,-2.518782020E-1,-3.619194031E-3,2.519537858E-1
1.114463894E1,-9.482242167E-3,-3.083435595E-1,3.403759003E-2,3.103614363E-1
1.116255715E1,-1.031921804E-2,-2.263306379E-1,2.025794983E-2,2.274696210E-1
1.118047415E1,-1.458871737E-2,-2.732989192E-1,2.501773834E-2,2.748290690E-1
1.119839224E1,8.663067594E-3,-2.247818112E-1,3.935432434E-2,2.283652212E-1
1.121631033E1,-2.489414066E-2,-2.336173803E-1,1.540374756E-2,2.354444182E-1
1.123422781E1,-4.409724474E-2,-1.851452142E-1,3.034019470E-2,1.927273845E-1
1.125214114E1,1.351644285E-2,-1.990125179E-1,2.972793579E-2,2.016740605E-1
1.127006820E1,-8.610819280E-2,-1.842096299E-1,2.074337006E-2,2.043969080E-1
1.128798129E1,2.327303216E-2,-1.402047127E-1,-7.981300354E-3,1.423470992E-1
1.130589968E1,-5.255060270E-2,-2.503679097E-1,2.011966705E-2,2.566134389E-1
1.132379946E1,-1.484812424E-2,-2.165681124E-1,-1.817417145E-2,2.178359810E-1
1.134173214E1,-1.429020613E-2,-2.782662213E-1,2.009582520E-2,2.793566575E-1
1.135965609E1,1.843691990E-2,-2.589315474E-1,-3.838539124E-3,2.596154861E-1
1.137757107E1,-1.477129757E-2,-3.347970247E-1,-8.646011353E-3,3.352342353E-1
1.139548818E1,8.889537305E-3,-2.863633335E-1,1.047897339E-2,2.866928522E-1
1.141340267E1,-1.039382443E-2,-3.044354320E-1,5.661964417E-3,3.046654258E-1
1.143132119E1,-2.008487284E-2,-2.844400406E-1,-3.934860229E-3,2.851754231E-1
1.144924520E1,-3.425457701E-2,-2.888990939E-1,1.518058777E-2,2.913185760E-1
1.146716091E1,-3.004822880E-2,-2.348622978E-1,5.586624146E-3,2.368425750E-1
1.148507675E1,8.315751329E-3,-2.435622811E-1,-2.315235138E-2,2.448014867E-1
1.150298446E1,-3.488670662E-2,-1.995688528E-1,1.989173889E-2,2.035693753E-1
1.152091384E1,-4.438829795E-2,-1.988147050E-1,-8.245468140E-3,2.038764225E-1
1.153883132E1,8.661022410E-3,-2.123773992E-1,-1.843643188E-2,2.133519979E-1
1.155674917E1,-1.987342164E-2,-1.879307926E-1,-1.366519928E-2,1.894720912E-1
1.157465298E1,2.326635271E-2,-1.869847476E-1,-3.760242462E-2,1.921420343E-1
1.159258804E1,-4.305377230E-2,-2.638393939E-1,-1.368331909E-2,2.676790733E-1
1.161050234E1,-3.407618031E-2,-1.916944087E-1,-2.326583862E-2,1.960847562E-1
1.162842068E1,-6.206173822E-2,-2.924582660E-1,-4.729270935E-3,2.990081315E-1
1.164632571E1,-1.473623142E-2,-2.245241404E-1,-1.849746704E-2,2.257662561E-1
1.166424295E1,-2.846319601E-2,-3.199358582E-1,4.807472229E-3,3.212354568E-1
1.168216299E1,-9.286634624E-3,-2.516049147E-1,5.989074707E-4,2.517769516E-1
1.170008120E1,-1.408491656E-2,-3.181390762E-1,-4.814147949E-3,3.184870998E-1
1.171799917E1,-2.435858175E-2,-2.206891179E-1,1.010704041E-2,2.222592620E-1
1.173592306E1,3.303889185E-2,-2.768353820E-1,-9.669303894E-3,2.789675475E-1
1.175383425E1,1.370065473E-2,-1.605555713E-1,-1.866531372E-2,1.622165015E-1
1.177175247E1,1.377119683E-2,-1.407973468E-1,4.606246948E-4,1.414699647E-1
1.178967056E1,-4.831236973E-2,-1.505485922E-1,-1.390743256E-2,1.587210773E-1
1.180758877E1,-2.895811573E-2,-1.548959017E-1,2.436637878E-2,1.594522914E-1
1.182550509E1,-2.386463061E-2,-1.308653951E-1,1.033782959E-3,1.330275946E-1
1.184343014E1,1.908727363E-2,-1.738388389E-1,-4.352569580E-3,1.749377341E-1
1.186135598E1,-3.686105087E-2,-2.842239141E-1,-2.888393402E-2,2.880559878E-1
1.187927102E1,-6.065232307E-2,-2.409989387E-1,1.478099823E-2,2.489531495E-1
1.189718844E1,-1.659867913E-2,-2.781494856E-1,-4.970550537E-3,2.786886414E-1
1.191510672E1,-1.142624021E-2,-2.584663630E-1,-1.974105835E-4,2.587188797E-1
1.193302444E1,-1.167992875E-2,-2.722672522E-1,4.570960999E-3,2.725559962E-1
1.195094235E1,7.626401260E-3,-2.667051554E-1,-2.346038818E-4,2.668142742E-1
1.196885964E1,-2.716310322E-3,-2.326365560E-1,-1.939392090E-2,2.334593534E-1
1.198677517E1,-1.245940849E-2,-2.079869360E-1,9.299278259E-3,2.085672049E-1
1.200469888E1,-3.176029772E-3,-2.264684141E-1,-2.899169922E-4,2.264908691E-1
1.202261410E1,-1.209936664E-2,-2.160878181E-1,1.404380798E-2,2.168814616E-1
1.204053146E1,-1.714440063E-2,-2.059001476E-1,1.881313324E-2,2.074674317E-1
1.205844924E1,-2.652118728E-2,-2.052260786E-1,9.223937988E-3,2.071381128E-1
1.207636740E1,-7.423229516E-2,-1.717347205E-1,1.459217072E-2,1.876597434E-1
1.209428567E1,7.457645610E-3,-2.471400201E-1,1.876544952E-2,2.479636024E-1
1.211220284E1,-2.843923867E-3,-1.702125669E-1,-1.893138885E-2,1.712857358E-1
1.213012094E1,2.095627412E-2,-2.272378057E-1,-1.475524902E-2,2.286786023E-1
1.214802706E1,-4.566822946E-2,-2.274523377E-1,-4.091262817E-4,2.319920699E-1
1.216595431E1,2.049243450E-2,-2.215805650E-1,-3.392314911E-2,2.250970162E-1
1.218387728E1,-5.059259757E-2,-2.455569655E-1,-2.436542511E-2,2.518958280E-1
1.220179269E1,-3.505874425E-3,-1.870685518E-1,9.120941162E-3,1.873235858E-1
1.221971066E1,-5.564064905E-2,-2.636399269E-1,-1.003837585E-2,2.696343114E-1
1.223762869E1,5.924815312E-3,-2.240857929E-1,4.302024841E-3,2.242053823E-1
1.225554617E1,-8.117530495E-3,-2.424105406E-1,4.279136658E-3,2.425841617E-1
1.227346389E1,-2.257137373E-2,-2.129007429E-1,4.258155823E-3,2.141362303E-1
1.229138186E1,3.401323780E-2,-2.454604954E-1,-5.937576294E-3,2.478770057E-1
1.230930026E1,5.400897935E-3,-1.968953758E-1,4.214286804E-3,1.970145145E-1
1.232721749E1,2.927308902E-2,-2.201635092E-1,-2.930355072E-2,2.240258526E-1
1.234513583E1,-2.813122794E-2,-1.763897240E-1,-9.580612183E-3,1.788756240E-1
1.236305270E1,-4.493214190E-3,-1.997162402E-1,-2.455234528E-2,2.012699263E-1
1.238096072E1,-5.722693726E-2,-1.897963881E-1,-2.874946594E-2,2.003100674E-1
1.239889212E1,1.465191506E-2,-1.750545800E-1,-3.414154053E-2,1.789537073E-1
1.241680416E1,-4.187953845E-2,-2.231152207E-1,-1.500892639E-2,2.275072863E-1
1.243472512E1,-2.345549688E-2,-1.980972290E-1,-1.980781555E-2,2.004620214E-1
1.245264334E1,-1.343552768E-2,-2.453412116E-1,8.890151978E-3,2.458695961E-1
1.247056057E1,-2.291201055E-2,-2.066553682E-1,1.366615295E-2,2.083702598E-1
1.248847573E1,-8.823499084E-3,-2.395032495E-1,8.862495422E-3,2.398295322E-1
1.250639968E1,-9.036812931E-3,-2.293128371E-1,8.845329285E-3,2.296612312E-1
1.252430007E1,1.920493320E-2,-2.142617404E-1,4.043579102E-3,2.151587168E-1
1.254223538E1,-4.720619321E-2,-1.946359724E-1,-1.032638550E-2,2.005448096E-1
1.256013327E1,1.931411028E-2,-2.415139228E-1,2.254867554E-2,2.433319801E-1
1.257806576E1,-3.384209424E-2,-1.641561389E-1,4.583358765E-3,1.676709052E-1
1.259598953E1,8.933914825E-3,-2.158851027E-1,-8.239746094E-4,2.160714497E-1
1.261390371E1,-2.014594898E-2,-1.626873165E-1,-8.392333984E-4,1.639320790E-1
1.263182357E1,-2.474482730E-2,-1.525254548E-1,-9.826660156E-3,1.548317929E-1
1.264973996E1,-2.509369701E-2,-1.901302040E-1,-5.657196045E-3,1.918624298E-1
1.266765554E1,-1.458004117E-3,-1.228390485E-1,-2.421092987E-2,1.252107293E-1
1.268557809E1,-5.933236331E-3,-1.895752996E-1,3.899574280E-3,1.897082080E-1
1.270348178E1,-3.506259993E-2,-1.751259565E-1,-1.524639130E-2,1.792510502E-1
1.272141158E1,-2.029382810E-2,-2.036202550E-1,4.217529297E-2,2.089301391E-1
1.273932968E1,-2.015655488E-2,-1.795139611E-1,1.345729828E-2,1.811426173E-1
1.275724728E1,-2.967233583E-2,-2.131391019E-1,1.823139191E-2,2.159655248E-1
1.277516525E1,3.727579489E-3,-2.167310715E-1,4.154586792E-2,2.207086571E-1
1.279307839E1,-1.068536192E-2,-2.258444577E-1,1.342010498E-2,2.264950226E-1
1.281100027E1,2.979746088E-3,-2.061271369E-1,-5.737304688E-3,2.062284950E-1
1.282891940E1,-2.527133748E-2,-2.203165144E-1,1.338577271E-2,2.221647720E-1
1.284683700E1,-2.202868462E-3,-1.995950788E-1,-2.492427826E-2,2.011573209E-1
1.286475460E1,-7.877912372E-3,-1.890900135E-1,-2.495002747E-2,1.908915886E-1
1.288266122E1,6.153535098E-3,-1.980605423E-1,-2.975082397E-2,2.003770345E-1
1.290059024E1,-5.639502779E-2,-1.447401047E-1,-2.498340607E-2,1.573348901E-1
1.291850857E1,-2.298520133E-2,-2.015577108E-1,-2.499866486E-2,2.043985408E-1
1.293642630E1,-4.660709575E-2,-1.486092210E-1,1.327896118E-2,1.563113967E-1
1.295434451E1,-1.412815787E-2,-1.581248939E-1,-2.022361755E-2,1.600377506E-1
1.297225051E1,-2.827293053E-2,-1.967450678E-1,1.805400848E-2,1.995843870E-1
1.299017721E1,-2.421302535E-2,-1.673528552E-1,3.695487976E-3,1.691357602E-1
1.300810086E1,-1.435797103E-2,-2.197264582E-1,7.875442505E-3,2.203358581E-1
1.302601620E1,-2.920202725E-2,-1.858840585E-1,-1.107215881E-3,1.881671266E-1
1.304393350E1,3.781564534E-3,-2.285017371E-1,-1.718521118E-3,2.285394876E-1
1.306185183E1,-1.449992880E-3,-2.377031296E-1,-3.044128418E-2,2.396488099E-1
1.307976980E1,1.214959938E-2,-2.229003757E-1,-2.088165283E-2,2.242057842E-1
1.309768783E1,-2.581837028E-2,-1.985961050E-1,-1.072216034E-2,2.005541470E-1
1.311560495E1,-1.817537472E-3,-2.509830892E-1,3.017425537E-3,2.510078074E-1
1.313352346E1,-1.688498259E-2,-1.588490605E-1,-2.032852173E-2,1.610322187E-1
1.315144162E1,-6.746778265E-3,-2.059682310E-1,-1.801490784E-3,2.060865754E-1
1.316935946E1,-3.097763099E-2,-1.384066045E-1,-1.214981079E-3,1.418360955E-1
1.318727639E1,-2.134864777E-2,-1.426250637E-1,3.557205200E-3,1.442578499E-1
1.320519570E1,-5.429996550E-2,-1.715159714E-1,3.704738617E-2,1.836810375E-1
1.322311306E1,-1.660107262E-2,-1.182539985E-1,1.311779022E-2,1.201319282E-1
1.324103134E1,-1.614691690E-2,-1.851786673E-1,2.268695831E-2,1.872606735E-1
1.325894479E1,-2.600156143E-2,-1.753438562E-1,2.267932892E-2,1.787061864E-1
1.327687063E1,-1.206758805E-2,-2.228206992E-1,7.715225220E-3,2.232805755E-1
1.329478445E1,-3.131350875E-2,-2.231991887E-1,2.923965454E-3,2.254040001E-1
1.331270181E1,-4.124179855E-2,-2.559513152E-1,2.905845642E-3,2.592689831E-1
1.333062142E1,-7.908355445E-3,-2.403898686E-1,-2.582263947E-2,2.419021284E-1
1.334853860E1,-8.088951930E-3,-2.401675284E-1,-1.627063751E-2,2.408539111E-1
1.336645651E1,1.027868222E-2,-2.244798094E-1,-3.543090820E-2,2.274910666E-1
1.338436196E1,-1.795563474E-2,-2.188154459E-1,-1.630878448E-2,2.201558099E-1
1.340229171E1,3.378940001E-2,-1.748787165E-1,-6.757736206E-3,1.782412860E-1
1.342021072E1,9.507901035E-3,-1.501420438E-1,-1.096534729E-2,1.508418786E-1
1.343812814E1,5.694316328E-2,-1.391386241E-1,-6.797790527E-3,1.504934899E-1
1.345604623E1,-3.905164450E-2,-1.056515351E-1,-1.578521729E-2,1.137385198E-1
1.347396359E1,-5.737219006E-3,-1.435279697E-1,2.750396729E-3,1.436689196E-1
1.349188186E1,-8.662115037E-2,-1.150835529E-1,-1.444816589E-3,1.440469900E-1
1.350980001E1,-3.488986567E-2,-1.049400792E-1,-1.444816589E-3,1.105975155E-1
1.352771810E1,-9.161718190E-2,-1.865941584E-1,5.059242249E-2,2.139408357E-1
1.354563552E1,-5.820922926E-2,-1.291225553E-1,1.768970490E-2,1.427370810E-1
1.356355368E1,-7.734123617E-2,-2.244378626E-1,6.015396118E-2,2.448928746E-1
1.358147170E1,-2.482230403E-2,-1.715343744E-1,3.143310547E-2,1.761483139E-1
1.359938967E1,-1.062532887E-2,-2.237266749E-1,5.475330353E-2,2.305741680E-1
1.361729544E1,4.589406401E-2,-1.747203469E-1,3.141021729E-2,1.833577555E-1
1.363522238E1,3.581652790E-2,-2.028239369E-1,-7.488250732E-3,2.060981489E-1
1.365314627E1,1.637624390E-2,-1.449227929E-1,-1.647281647E-2,1.467724462E-1
1.367106185E1,2.353521064E-3,-2.111756802E-1,-6.917953491E-3,2.113020706E-1
1.368897879E1,1.372193918E-3,-1.291800439E-1,-4.940509796E-2,1.383120760E-1
1.370688815E1,-3.808658570E-3,-1.862017810E-1,-5.480003357E-2,1.941356557E-1
1.372481118E1,-3.253706545E-2,-1.426641643E-1,-4.464054108E-2,1.529853010E-1
1.374273696E1,-7.468061149E-2,-1.906403154E-1,-2.610588074E-2,2.064035867E-1
1.376065090E1,-6.470302492E-2,-1.759978831E-1,-4.465579987E-2,1.927585971E-1
1.377856912E1,-1.688583009E-2,-1.753362566E-1,-1.175594330E-2,1.765393337E-1
1.379647537E1,-2.701304667E-2,-1.706133932E-1,-1.654052734E-2,1.735287402E-1
1.381440505E1,-2.637247369E-2,-1.659029126E-1,-6.966590881E-3,1.681303577E-1
1.383231082E1,-1.217125915E-2,-1.325170547E-1,2.653408051E-2,1.356943873E-1
1.385024044E1,-4.568828642E-2,-1.762880832E-1,2.653694153E-2,1.840356407E-1
1.386815872E1,-7.732717320E-3,-1.466705203E-1,4.088592529E-2,1.524588316E-1
1.388607693E1,1.596661657E-2,-1.703862399E-1,2.592563629E-2,1.730853610E-1
1.390399441E1,1.047546975E-2,-1.747336686E-1,-7.583618164E-3,1.752115911E-1
1.392191262E1,2.484623715E-2,-1.790635139E-1,-2.194976807E-2,1.821067539E-1
1.393983059E1,-2.715904452E-2,-1.691696495E-1,-2.135944366E-2,1.726621262E-1
1.395774941E1,2.489382774E-2,-1.686875820E-1,-3.632450104E-2,1.743406790E-1
1.397566543E1,-1.323253475E-2,-1.588271111E-1,-2.616119385E-2,1.615102451E-1
1.399358401E1,-8.616413921E-3,-1.442727447E-1,-3.095149994E-2,1.478068428E-1
1.401150192E1,-8.927956969E-2,-1.540504694E-1,2.646827698E-2,1.800082175E-1
1.402941726E1,-1.228126884E-2,-1.769291162E-1,7.316589355E-3,1.775057019E-1
1.404733761E1,-7.905638218E-2,-1.342238486E-1,2.527236938E-3,1.557958280E-1
1.406525619E1,3.979916871E-2,-1.618746221E-1,-4.534053802E-2,1.727516469E-1
1.408317544E1,-2.639911510E-2,-1.859799027E-1,-1.663494110E-2,1.885793169E-1
1.410109097E1,3.482535481E-2,-1.466840506E-1,-4.535865784E-2,1.574370473E-1
1.411899484E1,-4.578340426E-2,-1.756548136E-1,-1.665210724E-2,1.822855626E-1
1.413692752E1,-7.560517639E-3,-1.897487342E-1,-7.683753967E-3,1.900546859E-1
1.415484896E1,-5.063699931E-2,-1.796712130E-1,1.204586029E-2,1.870586893E-1
1.417276388E1,-2.905813977E-3,-1.793271750E-1,1.868247986E-3,1.793604466E-1
1.419068142E1,-1.268264465E-2,-2.171694189E-1,2.578735352E-2,2.190625335E-1
1.420858767E1,-8.222084492E-3,-1.976949424E-1,-2.934455872E-3,1.978876043E-1
1.422651760E1,-2.245137654E-2,-2.305496633E-1,3.533649445E-2,2.343200363E-1
1.424443557E1,-8.281935006E-3,-1.819060892E-1,1.139259338E-2,1.824505602E-1
1.426235330E1,5.860919133E-3,-2.052081823E-1,3.530693054E-2,2.083058516E-1
1.428027151E1,-4.675264657E-2,-1.521257013E-1,-1.196098328E-2,1.595966919E-1
1.429818923E1,-2.767500654E-2,-1.559228301E-1,-1.196956635E-2,1.588115407E-1
1.431610751E1,-3.289853781E-2,-1.126757488E-1,-2.094650269E-2,1.192346180E-1
1.433402487E1,-9.135574102E-3,-1.077338457E-1,-5.444908142E-2,1.210567747E-1
1.435193142E1,5.288367160E-3,-1.314364076E-1,-3.590774536E-2,1.363556462E-1
1.436985733E1,-2.360634692E-2,-1.217791587E-1,-4.069709778E-2,1.305514338E-1
1.438778280E1,-9.678158909E-3,-1.597238928E-1,-4.070472717E-2,1.651128811E-1
1.440569662E1,-6.190988421E-2,-1.552611887E-1,-2.426147461E-3,1.671668528E-1
1.442361502E1,-2.407543175E-2,-1.787518859E-1,-1.679229736E-2,1.811459201E-1
1.444153268E1,-6.720961630E-2,-1.831353903E-1,2.342224121E-3,1.950927721E-1
1.445945089E1,-6.191913038E-2,-1.826137751E-1,1.130485535E-2,1.931568516E-1
1.447736923E1,-1.188991368E-1,-1.537216604E-1,2.147102356E-2,1.955207366E-1
1.449528689E1,-1.377658695E-1,-1.774705648E-1,7.100105286E-3,2.247791086E-1
1.451320462E1,-6.074532866E-2,-1.476198137E-1,1.666069031E-2,1.604966758E-1
1.453112112E1,2.481622435E-2,-1.705660671E-1,-7.873535156E-3,1.725416494E-1
1.454903945E1,1.344568729E-1,-1.553751528E-1,-3.240585327E-2,2.080149709E-1
1.456695980E1,1.528510749E-1,-1.501593292E-1,-3.702163696E-3,2.143011462E-1
1.458487680E1,1.378816366E-1,-1.927968860E-1,-3.242683411E-2,2.392352075E-1
1.460279495E1,4.164025933E-2,-1.645502448E-1,6.453514099E-3,1.698597719E-1
1.462071243E1,-2.968022600E-2,-1.506907195E-1,2.264022827E-3,1.536025213E-1
1.463861941E1,-1.439402103E-1,-1.607725769E-1,1.661968231E-2,2.164320205E-1
1.465654836E1,-1.433606893E-1,-1.265223473E-1,-6.711006165E-3,1.913249310E-1
1.467446633E1,-1.855193377E-1,-1.174191758E-1,1.243019104E-2,2.199072467E-1
1.469238406E1,-1.081267670E-1,-1.073065177E-1,2.264022827E-3,1.523522637E-1
1.471030221E1,-5.957282707E-2,-1.118683293E-1,-1.209640503E-2,1.273175866E-1
1.472822006E1,3.573249280E-2,-1.110482141E-1,-2.705574036E-2,1.197519519E-1
1.474613839E1,4.578401521E-2,-1.536244899E-1,-5.099296570E-2,1.682169507E-1
1.476405569E1,9.849499911E-2,-1.429352760E-1,-4.621791840E-2,1.796325526E-1
1.478197415E1,4.622214288E-2,-2.050644755E-1,-8.544921875E-3,2.103828446E-1
1.479989187E1,3.102083318E-2,-1.614864022E-1,-3.667163849E-2,1.684783643E-1
1.481781033E1,-1.635434665E-2,-1.998761594E-1,2.553176880E-2,2.021628427E-1
1.483572781E1,-5.949236453E-2,-1.563123763E-1,6.978034973E-3,1.673965154E-1
1.485364553E1,-7.821797580E-2,-1.607470959E-1,2.185821533E-3,1.787804755E-1
1.487155258E1,-1.066538543E-1,-1.318182647E-1,-2.603530884E-3,1.695814787E-1
1.488948196E1,-3.929453343E-2,-1.071353033E-1,-2.604484558E-3,1.141438431E-1
1.490739639E1,-1.983210631E-2,-1.117523760E-1,-2.653503418E-2,1.165590580E-1
1.492532058E1,-9.963547811E-3,-8.782467246E-2,-2.607345581E-3,8.842648714E-2
1.494323470E1,4.283732176E-2,-8.767129481E-2,-2.609252930E-3,9.761198835E-2
1.496115267E1,4.708113149E-3,-1.019446328E-1,-2.653789520E-2,1.054473061E-1
1.497906173E1,4.310225323E-2,-1.353795975E-1,6.960868835E-3,1.422458905E-1
1.499698953E1,4.870766774E-3,-1.543000489E-1,-7.401466370E-3,1.545542338E-1
1.501490774E1,3.084577620E-4,-1.733323038E-1,-2.654552460E-2,1.753534931E-1
1.503281375E1,5.905106664E-4,-1.824606359E-1,-1.219844818E-2,1.828688997E-1
1.505074295E1,-4.681930691E-2,-2.064081281E-1,-7.422447205E-3,2.117816224E-1
1.506866134E1,-1.773576066E-2,-1.623297930E-1,-2.657222748E-2,1.654436525E-1
1.508656600E1,-5.560355633E-2,-1.911028624E-1,-2.179622650E-2,2.002177189E-1
1.510448678E1,-1.680492051E-2,-1.374112666E-1,-7.447242737E-3,1.386352154E-1
1.512241775E1,-2.128547058E-2,-1.469430625E-1,-2.672195435E-3,1.485007593E-1
1.514033352E1,2.566551790E-3,-1.363250762E-1,-2.679824829E-3,1.363755662E-1
1.515825106E1,1.237544883E-2,-1.168385372E-1,-2.685546875E-3,1.175227963E-1
1.517616476E1,7.679257542E-3,-9.757038206E-2,-1.704406738E-2,9.934510901E-2
1.519407254E1,-6.602404639E-3,-1.165301278E-1,6.880760193E-3,1.169196617E-1
1.521199386E1,-1.970445737E-3,-8.294987679E-2,-6.879806519E-3,8.325801134E-2
1.522991122E1,-3.049159050E-2,-1.114474982E-1,-1.645565033E-2,1.167093414E-1
1.524783029E1,-1.565027423E-2,-1.451928020E-1,6.269454956E-3,1.461683512E-1
1.526574801E1,-6.311725825E-2,-1.260166764E-1,-2.184581757E-2,1.426226867E-1
1.528366848E1,1.776004583E-2,-1.585777104E-1,-2.245044708E-2,1.611407212E-1
1.530158065E1,-2.887972072E-2,-1.492283791E-1,-1.766967773E-2,1.530207990E-1
1.531950143E1,2.900005691E-2,-1.862272024E-1,-1.768207550E-2,1.892993133E-1
1.533741946E1,-3.303116560E-2,-1.622191072E-1,-3.205108643E-2,1.686219700E-1
1.535533676E1,3.338538110E-2,-1.705454588E-1,-2.249145508E-2,1.752318542E-1
1.537326712E1,-2.313583158E-2,-1.370325089E-1,-2.190494537E-2,1.406876036E-1
1.539118734E1,-8.884057403E-3,-1.454256028E-1,-3.687000275E-2,1.502894857E-1
1.540910226E1,-1.743556745E-2,-1.264580190E-1,1.408576965E-3,1.276621074E-1
1.542701760E1,-5.542167649E-2,-1.068902165E-1,-2.785682678E-3,1.204360437E-1
1.544494143E1,6.270840764E-3,-1.010426283E-1,1.394271851E-3,1.012466304E-1
1.546285678E1,-4.555507377E-2,-1.252562106E-1,2.591514587E-2,1.357791509E-1
1.548077413E1,-1.256981865E-2,-8.637721837E-2,6.773948669E-3,8.754947501E-2
1.549869241E1,-1.665559039E-2,-1.195779964E-1,6.768226624E-3,1.209219369E-1
1.551661038E1,-2.204421535E-2,-1.143533662E-1,-1.238346100E-2,1.171152846E-1
1.553452865E1,2.481011674E-3,-1.575766206E-1,-8.204460144E-3,1.578095686E-1
1.555244577E1,-2.133020014E-2,-1.382606626E-1,-1.777839661E-2,1.410214864E-1
1.557036434E1,2.649037167E-3,-1.618323624E-1,1.093006134E-2,1.622226777E-1
1.558827829E1,-3.066846356E-2,-1.230784953E-1,1.630496979E-2,1.278855844E-1
1.560619961E1,7.912091911E-3,-1.703955829E-1,2.048397064E-2,1.718046825E-1
1.562411886E1,-5.894599482E-2,-9.815357625E-2,4.021549225E-2,1.213508989E-1
1.564203591E1,1.762027293E-2,-1.400590837E-1,1.321792603E-3,1.411692887E-1
1.565995388E1,-1.590486616E-2,-1.060286090E-1,1.148223877E-2,1.078279764E-1
1.567785769E1,-2.043342963E-2,-9.660258889E-2,1.087760925E-2,9.933734248E-2
1.569577926E1,2.701723203E-2,-1.100347862E-1,-1.784229279E-2,1.146993130E-1
1.571371096E1,3.066705540E-3,-1.000021398E-1,-8.279800415E-3,1.003911736E-1
1.573162576E1,2.719062939E-2,-9.514486790E-2,-2.742290497E-2,1.026834550E-1
1.574954452E1,-5.305264890E-2,-1.147614792E-1,-3.495216370E-3,1.264792362E-1
1.576745504E1,8.647805080E-3,-9.045027941E-2,-4.177665710E-2,1.000066331E-1
1.578537698E1,-6.194436923E-2,-1.149118617E-1,-3.490447998E-3,1.305910566E-1
1.580330056E1,-4.233382642E-3,-1.483655274E-1,-8.275032043E-3,1.486564072E-1
1.582121615E1,-2.331051230E-2,-1.526575387E-1,6.072044373E-3,1.545463484E-1
1.583913351E1,-2.314006165E-2,-1.618722230E-1,1.085281372E-2,1.638775842E-1
1.585705154E1,1.516295969E-2,-1.376508176E-1,1.084804535E-2,1.389076781E-1
1.587496957E1,-8.954089135E-3,-1.419177055E-1,1.265525818E-3,1.422055288E-1
1.589288797E1,-2.818192169E-2,-1.366802603E-1,4.911327362E-2,1.479453545E-1
1.591080538E1,-6.423890591E-5,-9.290416539E-2,-2.745819092E-2,9.687693390E-2
1.592872366E1,-9.172126651E-3,-1.029922664E-1,3.475379944E-2,1.090841942E-1
1.594664163E1,-6.648439169E-2,-1.026378423E-1,-8.323669434E-3,1.225723643E-1
1.596455990E1,1.917359978E-2,-8.286277205E-2,-1.789474487E-2,8.691425553E-2
1.598247702E1,-4.710230976E-2,-1.310491264E-1,-1.789951324E-2,1.404026128E-1
1.600039553E1,5.196718499E-3,-9.204784036E-2,-3.225803375E-2,9.767492789E-2
1.601831375E1,-2.725460008E-2,-1.355368942E-1,-8.331298828E-3,1.385008067E-1
1.603623178E1,5.632376298E-3,-1.012498960E-1,-3.226280212E-2,1.064150060E-1
1.605414920E1,-7.780447602E-3,-1.161831319E-1,1.237869263E-3,1.164499370E-1
1.607206710E1,-2.673916146E-2,-1.114475802E-1,1.238822937E-3,1.146171041E-1
1.608999032E1,-1.229326800E-2,-1.493079215E-1,2.456283569E-2,1.518134143E-1
1.610790255E1,-2.873543650E-3,-1.252930909E-1,3.472900391E-2,1.300489123E-1
1.612582180E1,-3.176815435E-2,-1.727766693E-1,3.890991211E-2,1.799304708E-1
1.614373934E1,-2.828024328E-3,-1.054611281E-1,3.950309753E-2,1.126523056E-1
1.616165750E1,-1.697627455E-2,-1.673563272E-1,1.975727081E-2,1.693714377E-1
1.617956765E1,-3.266941756E-3,-7.565449178E-2,-3.575325012E-3,7.580935288E-2
1.619749002E1,2.564514056E-2,-1.086686626E-1,-8.966445923E-3,1.120131627E-1
1.621541433E1,1.921415329E-3,-5.578920990E-2,-1.794433594E-2,5.863554358E-2
1.623332919E1,-1.266351715E-2,-7.937658578E-2,-3.230762482E-2,8.663018907E-2
1.625124734E1,1.595812850E-2,-8.883754909E-2,-3.231048584E-2,9.586834456E-2
1.626916494E1,-3.127256408E-2,-1.226354092E-1,-3.601074219E-3,1.266111551E-1
1.628708334E1,3.069417551E-2,-9.813544899E-2,-5.145645142E-2,1.149802816E-1
1.630500125E1,-6.398043036E-2,-1.368344575E-1,2.032756805E-2,1.524151379E-1
1.632291946E1,7.294865325E-3,-9.320491552E-2,-2.274227142E-2,9.621633046E-2
1.634083700E1,-2.526737377E-2,-1.223170608E-1,1.554107666E-2,1.258627372E-1
1.635875515E1,3.711935133E-3,-9.760158509E-2,1.553916931E-2,9.890052405E-2
1.637667312E1,8.858656511E-3,-1.363541335E-1,2.989387512E-2,1.398734045E-1
1.639459133E1,4.545018077E-3,-1.360097528E-1,2.450656891E-2,1.382746613E-1
1.641250882E1,2.851311117E-2,-1.595850736E-1,4.364299774E-2,1.678841996E-1
1.643042697E1,-1.912599057E-2,-1.496874392E-1,1.970958710E-2,1.521860729E-1
1.644834506E1,1.444567740E-2,-1.682941914E-1,3.405857086E-2,1.723125030E-1
1.646626327E1,-4.466392100E-3,-1.438408494E-1,5.502700806E-4,1.439112275E-1
1.648418081E1,3.415570408E-2,-1.192850396E-1,-4.234313965E-3,1.241509654E-1
1.650209762E1,-6.139036641E-2,-9.089905024E-2,-3.713989258E-2,1.158049483E-1
1.652001638E1,3.878739849E-2,-8.525188267E-2,1.549911499E-2,9.493454770E-2
1.653793746E1,-6.535115838E-2,-7.121382654E-2,-1.740550995E-2,9.820964702E-2
1.655585257E1,7.274979353E-2,-8.497990668E-2,-8.432388306E-3,1.121838766E-1
1.657377120E1,-6.965892017E-2,-8.558306098E-2,1.141548157E-3,1.103545587E-1
1.659167953E1,1.616688259E-2,-8.977073431E-2,-3.643989563E-3,9.128763055E-2
1.660960433E1,-5.015031621E-2,-9.042790532E-2,-3.642082214E-3,1.034675072E-1
1.662752755E1,1.702300832E-2,-1.192184240E-1,5.931854248E-3,1.205736386E-1
1.664544290E1,-3.535664827E-2,-1.094800234E-1,1.144409180E-3,1.150533692E-1
1.666336111E1,3.167308122E-2,-1.374690533E-1,-1.381206512E-2,1.417451862E-1
1.668127938E1,-6.387410313E-2,-1.424989700E-1,-4.246711731E-3,1.562174512E-1
1.669919387E1,3.593543917E-2,-1.225043088E-1,-3.775119781E-2,1.331308169E-1
1.671711795E1,-4.952555522E-2,-1.417784691E-1,-4.259109497E-3,1.502399911E-1
1.673503323E1,1.667135023E-2,-9.321602434E-2,-5.630588531E-2,1.101703855E-1
1.675295126E1,-5.013339967E-2,-6.511217356E-2,-3.716182709E-2,9.018843773E-2
1.677086886E1,2.187468112E-3,-6.914667785E-2,-4.195213318E-2,8.090753706E-2
1.678878720E1,-2.639434859E-2,-5.069839209E-2,-3.664970398E-3,5.727495619E-2
1.680670480E1,3.572809324E-2,-8.355629444E-2,-1.802253723E-2,9.264428118E-2
1.682462338E1,1.204736345E-2,-1.126532406E-1,2.444553375E-2,1.159028718E-1
1.684254074E1,4.563862085E-2,-1.071640700E-1,2.444362640E-2,1.190147574E-1
1.686045901E1,-2.216126770E-3,-1.268618554E-1,3.401470184E-2,1.313614917E-1
1.687837728E1,-2.434369177E-3,-5.462677032E-2,1.068878174E-2,5.571588861E-2
1.689629525E1,-1.588516682E-2,-8.368082345E-2,2.504158020E-2,8.878006238E-2
1.691421267E1,-1.255914569E-3,-8.385156095E-2,1.117706299E-3,8.386841397E-2
1.693212997E1,-1.519422233E-2,-9.833949059E-2,3.880977631E-2,1.068069218E-1
1.695005020E1,-2.898568287E-2,-9.841614217E-2,2.983951569E-2,1.068471036E-1
1.696796737E1,-1.007986069E-2,-1.126113832E-1,1.069450378E-2,1.135662786E-1
1.698588479E1,-5.273377523E-2,-1.411277652E-1,1.069259644E-2,1.510371768E-1
1.700379122E1,1.905544847E-2,-1.116511375E-1,-1.862239838E-2,1.147862376E-1
1.702172134E1,-9.519264102E-3,-1.455467343E-1,-9.054183960E-3,1.461384498E-1
1.703963943E1,2.402731031E-2,-1.068876684E-1,-1.384639740E-2,1.104264824E-1
1.705755691E1,-5.245305970E-2,-1.644941568E-1,-4.281044006E-3,1.727077834E-1
1.707547512E1,2.898957208E-2,-1.065318435E-1,-4.280090332E-3,1.104886788E-1
1.709339334E1,-4.756210372E-2,-1.498815566E-1,1.964282990E-2,1.584691626E-1
1.711131155E1,5.708030611E-2,-9.119445831E-2,-4.286766052E-3,1.076706410E-1
1.712922879E1,-5.214757845E-2,-1.106598377E-1,1.485252380E-2,1.232297330E-1
1.714714614E1,1.909325831E-2,-6.688548625E-2,4.940032959E-4,6.955907433E-2
1.716506759E1,-5.651371554E-2,-6.748251617E-2,2.502250671E-2,9.150855629E-2
1.718298226E1,2.912036330E-2,-8.130981028E-2,5.282402039E-3,8.652851887E-2
1.720090109E1,-5.133300275E-2,-5.312234908E-2,1.066684723E-2,7.463807857E-2
1.721881942E1,3.483229131E-2,-1.245921254E-1,4.920959473E-4,1.293705082E-1
1.723673702E1,-3.668386489E-2,-9.086658061E-2,1.087188721E-3,9.799807852E-2
1.725465597E1,4.010886699E-2,-1.480252594E-1,-9.084701538E-3,1.536318015E-1
1.727257266E1,-1.249221712E-2,-1.428297907E-1,-9.091377258E-3,1.436630006E-1
1.729049124E1,3.076847643E-2,-1.470812708E-1,-1.388549805E-2,1.509052896E-1
1.730840945E1,-1.709220558E-2,-1.132511050E-1,1.003742218E-2,1.149726320E-1
1.732633132E1,-7.233761251E-3,-1.271812618E-1,5.246162415E-3,1.274947955E-1
1.734424227E1,-5.017857999E-2,-6.459978223E-2,1.052856445E-3,8.180544151E-2
1.736216622E1,3.071417660E-2,-2.566589415E-2,-3.732681274E-3,4.019989647E-2
1.738008163E1,-4.004912451E-2,-6.439617276E-2,-8.518218994E-3,7.631093955E-2
1.739799984E1,-6.966356188E-3,-3.034374118E-2,-2.765941620E-2,4.164512038E-2
1.741591458E1,-8.223354816E-2,-8.836661279E-2,5.843162537E-3,1.208517987E-1
1.743383548E1,-1.979976520E-2,-1.023070812E-1,-3.734588623E-3,1.042723200E-1
1.745175369E1,-9.111727774E-2,-9.717140347E-2,-1.330852509E-2,1.338721659E-1
1.746967166E1,3.783888742E-2,-1.057710201E-1,-2.348327637E-2,1.147639070E-1
1.748758944E1,-1.882007718E-2,-1.203673333E-1,-1.391601562E-2,1.226219626E-1
1.750550759E1,6.222090125E-2,-1.480578780E-1,-1.452350616E-2,1.612560325E-1
1.752341378E1,2.858690545E-2,-1.430770159E-1,5.204200745E-3,1.459976964E-1
1.754134414E1,6.664095819E-2,-2.044419050E-1,8.779525757E-3,2.152082478E-1
1.755926638E1,4.364430904E-3,-1.273358315E-1,3.389549255E-2,1.318422036E-1
1.757717990E1,4.719910771E-2,-1.554416418E-1,2.371311188E-2,1.641711651E-1
1.759509774E1,-3.407388180E-2,-7.353210449E-2,2.908992767E-2,8.610588658E-2
1.761301614E1,-2.407716587E-2,-7.785990834E-2,3.865528107E-2,9.020036584E-2
1.763093338E1,-2.825077623E-2,-1.302614808E-3,2.968597412E-2,4.100073441E-2
1.764885360E1,-2.313118055E-2,-5.869849026E-2,5.758285522E-3,6.335394325E-2
1.766677126E1,1.011748612E-2,-2.439181507E-2,-8.600234985E-3,2.777207607E-2
1.768468704E1,-8.678048849E-3,-4.338365048E-2,-1.817131042E-2,4.782934438E-2
1.770260580E1,1.070908457E-2,-4.811283946E-2,-2.774238586E-2,5.656120390E-2
1.772052395E1,1.357812434E-3,-6.242763251E-2,-3.731346130E-2,7.274164797E-2
1.773844119E1,6.457328796E-3,-7.182441652E-2,-3.731536865E-2,8.119655560E-2
1.775635696E1,2.082325704E-2,-1.006700695E-1,-4.749107361E-2,1.132407744E-1
1.777428158E1,-1.654333994E-2,-1.241236627E-1,-1.399707794E-2,1.260011267E-1
1.779219583E1,-6.787825376E-3,-1.140514910E-1,-4.433631897E-3,1.143392945E-1
1.781011404E1,-2.093635127E-2,-1.372559369E-1,3.423690796E-4,1.388439420E-1
1.782803250E1,-1.111901924E-2,-1.320293993E-1,4.819297791E-2,1.409892123E-1
1.784595004E1,1.308299601E-2,-1.075649932E-1,2.904415131E-2,1.121826870E-1
1.786386819E1,3.706962615E-2,-7.361821830E-2,3.382301331E-2,8.909430665E-2
1.788178646E1,3.725338727E-3,-4.464078695E-2,2.424907684E-2,5.093815599E-2
1.789970462E1,3.937359899E-3,-3.965619951E-2,5.295944214E-2,6.627834846E-2
1.791762210E1,2.730974369E-2,-2.926358581E-2,3.156661987E-4,4.002847986E-2
1.793554055E1,-1.013076678E-2,-6.803604960E-2,1.945686340E-2,7.148500552E-2
1.795345828E1,9.468145669E-3,-7.725782692E-2,-9.259223938E-3,7.838463390E-2
1.797137655E1,-6.171656400E-2,-8.194895834E-2,5.697250366E-3,1.027473830E-1
1.798929440E1,5.275614560E-3,-1.055124626E-1,-1.883411407E-2,1.073099982E-1
1.800721243E1,-3.254282102E-2,-6.223957986E-2,-8.666038513E-3,7.076652262E-2
1.802513070E1,2.476397343E-2,-8.590266854E-2,-2.840805054E-2,9.380586430E-2
1.804304916E1,5.827795714E-3,-5.206665397E-2,-2.362632751E-2,5.747262835E-2
1.806096633E1,1.129531860E-2,-1.041801348E-1,-2.363395691E-2,1.074227566E-1
1.807888473E1,-2.192522585E-2,-1.037603244E-1,-3.320980072E-2,1.111297049E-1
1.809680288E1,-6.959797442E-2,-1.324154288E-1,-2.843284607E-2,1.522699923E-1
1.811472097E1,-4.093937948E-2,-9.287969768E-2,-3.916740417E-3,1.015776151E-1
1.813263876E1,3.466496617E-2,-8.207952231E-2,-2.845478058E-2,9.353278783E-2
1.815054953E1,7.265492529E-2,-3.866064548E-2,9.823799133E-3,8.288480384E-2
1.816847170E1,1.590215787E-2,-6.753855944E-2,1.460266113E-2,7.090538307E-2
1.818639614E1,5.361775309E-2,-6.189715862E-2,1.938533783E-2,8.415410278E-2
1.820431076E1,2.158392221E-3,-9.554189444E-2,2.416801453E-2,9.857487091E-2
1.822222909E1,4.084859416E-2,-1.140226573E-1,1.937389374E-2,1.226585577E-1
1.824014700E1,3.677742183E-2,-1.088564694E-1,-2.369785309E-2,1.173196400E-1
1.825806552E1,3.271302208E-2,-1.086388677E-1,2.317428589E-4,1.134574771E-1
1.827598288E1,2.339276299E-2,-7.425384969E-2,-3.805255890E-2,8.665363692E-2
1.829390139E1,-8.954916149E-3,-7.928244025E-2,-1.412582397E-2,8.102737042E-2
1.831181875E1,-8.606977761E-3,-6.927409768E-2,-2.310276031E-2,7.353038970E-2
1.832973757E1,-4.686582461E-2,-8.332441747E-2,-1.832199097E-2,9.733991687E-2
1.834765524E1,-3.232092038E-2,-1.113822162E-1,-9.357452393E-3,1.163537790E-1
1.836557351E1,-6.558978558E-2,-8.751246333E-2,8.049011230E-4,1.093668098E-1
1.838347958E1,-6.546914577E-2,-1.107864976E-1,4.984855652E-3,1.287816209E-1
1.840140969E1,-3.201074898E-3,-9.988433123E-2,1.888275146E-4,9.993579019E-2
1.841932748E1,6.243504584E-3,-6.595826149E-2,1.821517944E-4,6.625335303E-2
1.843724569E1,2.542873099E-2,-5.593377352E-2,1.754760742E-4,6.144296682E-2
1.845515267E1,4.380200803E-2,-4.539201409E-2,-9.401321411E-3,6.377645094E-2
1.847308181E1,3.435676545E-2,-3.064586222E-2,1.512050629E-2,4.845808409E-2
1.849099478E1,3.963241726E-2,-6.909436733E-2,4.943847656E-3,7.980727864E-2
1.850892220E1,8.215987682E-2,-5.867862701E-2,-4.630088806E-3,1.010686121E-1
1.852683602E1,-2.197953314E-2,-6.852103025E-2,2.946567535E-2,7.775897046E-2
1.854475424E1,2.136225998E-2,-7.790192962E-2,-9.418487549E-3,8.132505578E-2
1.856266018E1,-2.620339394E-2,-5.840510130E-2,1.450634003E-2,6.563693787E-2
1.858059036E1,7.699910551E-3,-1.007937491E-1,-9.428024292E-3,1.015261352E-1
1.859850790E1,2.193896845E-2,-3.778998554E-2,-1.421356201E-2,4.595026321E-2
1.861641299E1,1.814044267E-2,-1.145087406E-1,-3.814506531E-2,1.220506999E-1
1.863434701E1,4.050668329E-3,-7.126345485E-2,-9.431838989E-3,7.199894095E-2
1.865226229E1,4.249859601E-3,-1.088988110E-1,-4.293918610E-2,1.171357591E-1
1.867018026E1,-1.930252090E-2,-7.972015440E-2,-2.858734131E-2,8.686268712E-2
1.868808413E1,2.869663760E-2,-1.176561117E-1,-3.337669373E-2,1.256203062E-1
1.870600503E1,-1.000300795E-2,-4.078190774E-2,-3.756713867E-2,5.634282629E-2
1.872392257E1,-1.404146105E-2,-7.383403182E-2,-4.670143127E-3,7.530230488E-2
1.874184158E1,-1.390057057E-2,-3.043118119E-2,1.506710052E-2,3.669196328E-2
1.875975936E1,-2.341182530E-2,-6.351738423E-2,-4.678726196E-3,6.785618721E-2
1.877767721E1,2.921099588E-2,-7.275088131E-2,1.445865631E-2,7.971841541E-2
1.879559451E1,-9.045287967E-3,-7.252119482E-2,4.884719849E-3,7.324617000E-2
1.881351339E1,1.055663824E-2,-9.154494107E-2,-4.685401917E-3,9.227064450E-2
1.883143270E1,1.074950397E-2,-7.683926821E-2,-2.861690521E-2,8.269674866E-2
1.884934927E1,2.037964016E-2,-1.003025919E-1,-4.693984985E-3,1.024596173E-1
1.886726773E1,5.330737680E-2,-5.634591728E-2,-3.341197968E-2,8.445649295E-2
1.888518160E1,2.051252872E-2,-8.512625843E-2,-2.863311768E-2,9.212545325E-2
1.890311392E1,3.017274663E-2,-7.043594122E-2,-1.906490326E-2,7.896256702E-2
1.892103372E1,1.667939126E-3,-9.380972385E-2,-2.864265442E-2,9.809917412E-2
1.893894662E1,2.107008547E-2,-6.928382814E-2,-4.719734192E-3,7.257047081E-2
1.895687332E1,1.648571715E-2,-9.239338338E-2,-4.729270935E-3,9.397170939E-2
1.897478714E1,1.681495830E-2,-5.371406674E-2,5.340576172E-5,5.628451511E-2
1.899270462E1,-1.631690562E-2,-7.262802124E-2,9.623527527E-3,7.505786541E-2
1.901062313E1,3.037057817E-3,-3.405413777E-2,1.919269562E-2,3.920800408E-2
1.902854122E1,8.075777441E-3,-5.307154357E-2,1.440811157E-2,5.558237668E-2
1.904645932E1,-1.327075064E-3,-4.356217384E-2,2.876663208E-2,5.222014209E-2
1.906435873E1,8.281584829E-3,-5.290211737E-2,9.621620178E-3,5.440399107E-2
1.908229544E1,-1.175254583E-3,-8.608207107E-2,2.397537231E-2,8.936622774E-2
1.910021340E1,1.336555183E-2,-6.661792099E-2,1.918601990E-2,7.060232810E-2
1.911811996E1,-2.023436129E-2,-7.589629292E-2,-4.746437073E-3,7.869056692E-2
1.913604910E1,2.775076404E-2,-7.045581192E-2,-2.868175507E-2,8.097388105E-2
1.915396756E1,1.325123757E-2,-7.957004756E-2,-1.433086395E-2,8.192900236E-2
1.917188528E1,1.815855876E-2,-6.500218064E-2,-3.347587585E-2,7.533691663E-2
1.918980380E1,1.805530116E-2,-1.075353771E-1,-9.554862976E-3,1.094584243E-1
1.920772122E1,1.826895401E-2,-7.825350761E-2,-9.560585022E-3,8.092447665E-2
1.922563674E1,4.112765193E-3,-1.016604304E-1,4.791259766E-3,1.018563406E-1
1.924356057E1,3.762552887E-2,-7.738202810E-2,-1.914119720E-2,8.814785378E-2
1.926147598E1,1.859103516E-2,-6.738092750E-2,4.782676697E-3,7.006204376E-2
1.927939376E1,4.382915795E-3,-4.780574888E-2,-1.376628876E-2,4.994106810E-2
1.929731265E1,3.301391378E-2,-3.798922896E-2,5.373001099E-3,5.061589830E-2
1.931522610E1,-1.023834199E-2,-4.252400994E-2,5.826950073E-4,4.374305204E-2
1.933315188E1,3.290174529E-2,-5.186856538E-2,4.767417908E-3,6.160845065E-2
1.935106570E1,-3.394854069E-2,-5.174846947E-2,-4.803657532E-3,6.207642574E-2
1.936898391E1,2.342064679E-2,-7.055979967E-2,9.548187256E-3,7.495585304E-2
1.938690243E1,-4.324243218E-2,-3.204596043E-2,-2.395153046E-2,5.891118172E-2
1.940482034E1,3.345869854E-2,-9.874534607E-2,4.759788513E-3,1.043684984E-1
1.942273782E1,-3.816251457E-2,-4.599732906E-2,-2.814102173E-2,6.606094839E-2
1.944065634E1,6.688288599E-2,-1.075113118E-1,-2.934837341E-2,1.299743422E-1
1.945857424E1,-3.351757675E-2,-6.396410614E-2,-2.875518799E-2,7.772834530E-2
1.947649252E1,6.180363148E-2,-1.015114263E-1,-2.936458588E-2,1.224195141E-1
1.949441012E1,-2.936813980E-2,-9.139193594E-2,-2.398967743E-2,9.894684540E-2
1.951232821E1,4.251604900E-2,-8.124615997E-2,-2.878093719E-2,9.610876796E-2
1.953023464E1,1.864877716E-2,-8.566091955E-2,-9.642601013E-3,8.819608711E-2
1.954816189E1,3.849744797E-3,-3.756155074E-2,-4.314327240E-2,5.733264848E-2
1.956608523E1,-1.438993961E-2,-4.219944775E-2,-1.861667633E-2,4.831608831E-2
1.958400058E1,1.862846687E-2,-2.773267776E-2,-2.400112152E-2,4.113605509E-2
1.960191879E1,-9.403102100E-3,-3.261070698E-2,-2.818679810E-2,4.411770762E-2
1.961983840E1,3.401263431E-2,-5.635216832E-2,-1.921367645E-2,6.856815245E-2
1.963775167E1,-2.334731072E-2,-3.240843117E-2,5.273818970E-4,3.994598178E-2
1.965567593E1,1.013056561E-2,-8.961462229E-2,-4.858016968E-3,9.031616255E-2
1.967359054E1,-1.852643490E-2,-2.251815796E-2,-4.261970520E-3,2.946965593E-2
1.969150918E1,5.442447960E-3,-8.902665973E-2,4.706382751E-3,8.931694364E-2
1.970941110E1,3.951266408E-4,-4.574968666E-2,-2.401256561E-2,5.167004221E-2
1.972734219E1,1.954824105E-2,-9.331896901E-2,-9.657859802E-3,9.583234298E-2
1.974526583E1,9.905200452E-3,-5.962210894E-2,9.481430054E-3,6.117847976E-2
1.976318069E1,1.964683458E-2,-1.358458698E-1,-1.026153564E-2,1.376422811E-1
1.978109945E1,1.975982264E-2,-6.390817463E-2,1.426315308E-2,6.839695104E-2
1.979901443E1,5.322832242E-2,-1.067663431E-1,4.091262817E-3,1.193693627E-1
1.981693801E1,2.895839885E-2,-6.338435411E-2,-3.360176086E-2,7.736435577E-2
1.983485366E1,4.861697555E-3,-5.841314793E-2,-1.049041748E-4,5.861521098E-2
1.985277096E1,2.313552052E-2,-2.970483899E-2,-2.343750000E-2,4.435026691E-2
1.987068948E1,4.640050232E-3,-5.350662023E-2,-1.446437836E-2,5.562109955E-2
1.988860726E1,2.849974856E-2,-4.383485019E-2,-1.925182343E-2,5.571680594E-2
1.990652566E1,-3.351046145E-2,-4.829312861E-2,1.005840302E-2,5.963513032E-2
1.992444308E1,1.415531337E-2,-5.762589723E-2,-1.447296143E-2,6.107850310E-2
1.994236343E1,-3.832284361E-2,-3.818253428E-2,-4.305839539E-3,5.426865136E-2
1.996027951E1,3.788489848E-2,-6.186148897E-2,-1.239776611E-4,7.254050400E-2
1.997819790E1,4.327453673E-3,-4.252176732E-2,-2.824115753E-2,5.122880567E-2
1.999611544E1,4.663014412E-2,-3.694818169E-2,-2.405834198E-2,6.417431176E-2
2.001403378E1,4.154451191E-3,-5.156735331E-2,-2.406215668E-2,5.705645253E-2
2.003193582E1,4.638928175E-2,-6.002198905E-2,-4.799747467E-2,8.976838088E-2
2.004986581E1,-7.523000240E-4,-5.076933652E-2,-2.347278595E-2,5.593802970E-2
2.006779171E1,3.673590720E-2,-6.421296299E-2,-5.278968811E-2,9.088224614E-2
2.008570590E1,8.704323322E-3,-6.433492154E-2,-3.365230560E-2,7.312472254E-2
2.010362405E1,3.861151636E-3,-5.447514355E-2,-5.220031738E-2,7.554682582E-2
2.012153030E1,-2.944412082E-2,-3.981425613E-2,-3.784561157E-2,6.232512782E-2
2.013945974E1,2.265483141E-2,-3.967819363E-2,-4.323005676E-2,6.290022451E-2
2.015737802E1,-1.976076514E-2,-6.822837889E-2,-1.451683044E-2,7.250060614E-2
2.017529592E1,6.143508852E-2,-8.710321784E-2,-1.033401489E-2,1.070889001E-1
2.019321420E1,-2.002479881E-2,-6.292532384E-2,-1.930999756E-2,6.880018135E-2
2.021113186E1,5.628336966E-2,-1.101850271E-1,4.011154175E-3,1.237927593E-1
2.022905032E1,-2.017442882E-2,-2.389073372E-2,-2.350711823E-2,3.911980755E-2
2.024696798E1,7.045686990E-2,-8.025465906E-2,-2.411365509E-2,1.094826433E-1
2.026488638E1,8.283857256E-3,-2.332498133E-2,-1.872920990E-2,3.103965768E-2
2.028280142E1,2.253644168E-2,-8.977746964E-2,-3.369140625E-2,9.850378730E-2
2.030072476E1,-4.476885498E-2,-5.100843310E-2,-2.352905273E-2,7.183123935E-2
2.031864041E1,2.646387741E-2,-1.126817763E-1,-2.892303467E-2,1.193065859E-1
2.033655868E1,-7.083840668E-3,-6.901481748E-2,-4.328536987E-2,8.177315620E-2
2.035447580E1,5.020711198E-2,-1.021057144E-1,-3.850555420E-2,1.201208088E-1
2.037239431E1,7.657159120E-3,-4.441731423E-2,-4.329013824E-2,6.249452743E-2
2.039031228E1,2.694746479E-2,-5.864257365E-2,-2.893352509E-2,7.072670060E-2
2.040823062E1,1.148675382E-2,-2.957095206E-2,-2.356052399E-2,3.951562994E-2
2.042614816E1,1.612197980E-2,-5.787838995E-2,4.549980164E-3,6.025386773E-2
2.044406619E1,-1.722650975E-2,-5.287588760E-2,-9.808540344E-3,5.646963424E-2
2.046198165E1,-6.826944649E-3,-3.360719979E-2,1.472282410E-2,3.732040461E-2
2.047990548E1,-5.871592462E-2,-4.356906936E-2,2.908229828E-2,7.868674400E-2
2.049782003E1,-1.009315252E-3,-2.356717736E-2,-1.398944855E-2,2.742508407E-2
2.051573861E1,1.707498357E-2,-1.850032061E-2,-4.427909851E-3,2.556214608E-2
2.053365774E1,3.607118130E-2,-4.684191197E-2,-1.938724518E-2,6.221864763E-2
2.055156912E1,5.431773514E-2,-3.171098977E-2,-3.374958038E-2,7.137953067E-2
2.056949221E1,1.642685011E-2,-7.492775470E-2,-2.418422699E-2,8.042938931E-2
2.058741043E1,1.156622171E-2,-5.554486066E-2,-3.316020966E-2,6.571612082E-2
2.060532864E1,1.647694036E-2,-1.079683304E-1,-3.854560852E-2,1.158206107E-1
2.062324691E1,2.388618886E-3,-5.986228958E-2,-4.273319244E-2,7.358889149E-2
2.064116433E1,2.147717774E-2,-8.349255472E-2,-9.835243225E-3,8.676985575E-2
2.065908254E1,1.122963428E-2,-2.048438042E-2,-6.188106537E-2,6.614363748E-2
2.067700564E1,-1.663278043E-2,-5.423858017E-2,-9.241104126E-3,5.747930905E-2
2.069491897E1,5.440778285E-2,-1.517845690E-2,-4.752922058E-2,7.382153614E-2
2.071283651E1,2.525225282E-3,-6.331943721E-2,-9.245872498E-3,6.404072180E-2
2.073075436E1,3.517149389E-2,-2.894659340E-2,-9.250640869E-3,4.648132537E-2
2.074867288E1,-1.662123203E-2,-5.785268918E-2,1.946163177E-2,6.326099992E-2
2.076659622E1,1.190626621E-2,-4.324279726E-2,-9.256362915E-3,4.579714996E-2
2.078450399E1,-2.640839666E-2,-9.686216712E-3,9.885787964E-3,2.981534860E-2
2.080243124E1,2.150768042E-2,-4.781141505E-2,-9.857177734E-3,5.334487490E-2
2.082034475E1,-2.351231873E-3,-2.372767776E-2,-9.259223938E-3,2.557858892E-2
2.083826297E1,2.646067366E-2,-4.277893156E-2,-1.404476166E-2,5.222508560E-2
2.085617550E1,2.480655909E-3,-5.211894959E-2,5.094528198E-3,5.242606964E-2
2.087409915E1,6.403363496E-2,-7.039051503E-2,-3.379249573E-2,1.009805119E-1
2.089201644E1,1.201687008E-2,-8.014878631E-2,-9.867668152E-3,8.164315028E-2
2.090993508E1,3.123015538E-2,-7.008554786E-2,-4.277324677E-2,8.784564453E-2
2.092785214E1,3.629357368E-2,-6.503656507E-2,-3.320312500E-2,8.154401140E-2
2.094577072E1,-7.094234228E-3,-2.176420391E-2,-3.798866272E-2,4.435253348E-2
2.096368875E1,3.173798323E-3,-5.014686286E-2,-2.363395691E-2,5.552787381E-2
2.098160702E1,7.651716471E-3,-1.570200920E-2,-5.653667450E-2,5.917345200E-2
2.099952444E1,-1.054933667E-2,-5.424322560E-2,-2.363586426E-2,6.010216392E-2
2.101744290E1,8.195377886E-3,-1.045712829E-2,-6.132316589E-2,6.274588772E-2
2.103536062E1,1.300786436E-2,-6.360474229E-2,-5.235099792E-2,8.339900935E-2
2.105327908E1,3.695972264E-3,-1.024787128E-2,-6.132221222E-2,6.228236338E-2
2.107119625E1,1.817477122E-2,-4.364679009E-2,-5.175113678E-2,7.009668146E-2
2.108911141E1,3.245413303E-2,-4.349947721E-2,-4.218101501E-2,6.873654993E-2
2.110702981E1,2.738961205E-2,-3.863953426E-2,-2.304172516E-2,5.266996824E-2
2.112495364E1,4.049748182E-3,-5.336131528E-2,-2.842807770E-2,6.059691436E-2
2.114286843E1,1.831307635E-2,-5.302057043E-2,-1.407527924E-2,5.783306268E-2
2.116078695E1,1.821857318E-2,-7.187983394E-2,-1.886463165E-2,7.651471272E-2
2.117870431E1,1.817667112E-2,-7.175859064E-2,-4.508972168E-3,7.416210308E-2
2.119661965E1,3.689255565E-2,-8.076157421E-2,-2.365970612E-2,9.188729088E-2
2.121454330E1,-5.889073014E-3,-2.795587480E-2,-1.348972321E-2,3.159406193E-2
2.123245852E1,1.852461323E-2,-5.653713644E-2,-1.408576965E-2,6.113933266E-2
2.125037625E1,3.887228668E-3,-3.205109388E-2,-4.698467255E-2,5.700826799E-2
2.126828536E1,9.460005909E-3,-4.689824581E-2,-4.511833191E-3,4.805511222E-2
2.128621170E1,2.803825215E-2,-4.603225365E-2,-3.322792053E-2,6.331829643E-2
2.130413119E1,-1.917488873E-2,-2.250504494E-2,-2.784538269E-2,4.061426772E-2
2.132204861E1,2.861430123E-2,-6.059032306E-2,-1.408863068E-2,6.847229365E-2
2.133996658E1,-1.018589735E-2,7.239155471E-3,-4.220485687E-2,4.401599505E-2
2.135788406E1,2.389857918E-2,-6.471672654E-2,-2.366542816E-2,7.293455471E-2
2.137580252E1,2.784759179E-2,-1.597924531E-2,-3.264331818E-2,4.578657959E-2
2.139372024E1,2.365329862E-2,-5.451736599E-2,-2.367305756E-2,6.396901894E-2
2.141163845E1,2.851974592E-2,-5.363010615E-2,-3.324699402E-2,6.924540999E-2
2.142955618E1,3.809863329E-2,-5.811502412E-2,-2.846336365E-2,7.509344151E-2
2.144747830E1,2.784847841E-2,-5.776309595E-2,-4.760932922E-2,7.986714739E-2
2.146539236E1,4.680625349E-2,-6.213100255E-2,-3.325843811E-2,8.460029875E-2
2.148331057E1,2.368620783E-2,-4.826198891E-2,-3.804302216E-2,6.585990851E-2
2.150122171E1,8.654505014E-3,-2.347613871E-2,-4.283142090E-2,4.960403373E-2
2.151914352E1,3.544613719E-3,-3.819919005E-2,-5.240726471E-2,6.494816242E-2
2.153706698E1,1.796855405E-2,-4.061281681E-3,-3.805065155E-2,4.227546602E-2
2.155498226E1,-1.068912446E-3,-5.223229527E-2,-6.138134003E-2,8.060411991E-2
2.157289962E1,4.075065255E-3,5.920693278E-3,-4.223728180E-2,4.284447152E-2
2.159081472E1,8.899323642E-3,-3.701367229E-2,-3.745269775E-2,5.340331888E-2
2.160873556E1,-1.949838549E-2,6.184972823E-3,-3.745174408E-2,4.267404434E-2
2.162665463E1,4.850603640E-3,-3.660143167E-2,-1.831340790E-2,4.121376062E-2
2.164457150E1,1.882346347E-2,-1.244043559E-2,-1.771545410E-2,2.868666116E-2
2.166248983E1,1.887601987E-2,-2.658762783E-2,-3.267192841E-2,4.615908345E-2
2.168040506E1,3.309371322E-2,-4.552930221E-2,-2.310371399E-2,6.084318215E-2
2.169832327E1,9.692218155E-3,-5.497698858E-2,-3.746223450E-2,6.722966146E-2
2.171624636E1,3.781365603E-2,-4.996807873E-2,-4.224872589E-2,7.557536844E-2
2.173416189E1,2.389060706E-2,-6.895030290E-2,-3.746604919E-2,8.202810627E-2
2.175207962E1,6.157946959E-2,-6.390465796E-2,-5.182552338E-2,1.027702353E-1
2.176999783E1,-4.193708301E-4,-1.119843125E-2,-4.644107819E-2,4.777399374E-2
2.178791525E1,2.843495086E-2,-5.408729985E-2,-5.122661591E-2,7.973799981E-2
2.180583346E1,4.663266242E-3,1.286023855E-2,-3.208255768E-2,3.487724609E-2
2.182375137E1,1.436596364E-2,-3.025399521E-2,-6.558132172E-2,7.363827059E-2
2.184166976E1,1.926890388E-2,-3.513028473E-2,-3.207969666E-2,5.132771668E-2
2.185958706E1,-1.342712343E-2,-3.050080314E-2,-2.250576019E-2,4.021313066E-2
2.187750546E1,1.053465530E-2,-6.444220990E-2,-8.150100708E-3,6.580426674E-2
2.189542330E1,5.687698722E-3,-3.040039912E-2,-8.150100708E-3,3.198371968E-2
2.191334133E1,1.505822688E-2,-6.896133721E-2,1.098823547E-2,7.143638810E-2
2.193124661E1,4.283966124E-2,-3.463900834E-2,-1.294517517E-2,5.659218174E-2
2.194917990E1,1.950418577E-2,-3.912216052E-2,1.410484314E-3,4.373724011E-2
2.196709506E1,4.255969077E-2,-5.330638215E-2,-1.295089722E-2,6.943070931E-2
2.198501321E1,1.381141692E-2,-4.825282842E-2,-2.252388000E-2,5.501286993E-2
2.200293044E1,3.785400838E-2,-5.752591789E-2,-3.688240051E-2,7.811829905E-2
2.202084689E1,1.378862560E-2,-5.263034627E-2,-3.688430786E-2,6.573075164E-2
2.203876858E1,4.271052778E-2,-4.280142114E-2,-5.602836609E-2,8.243378337E-2
2.205668319E1,-1.467574388E-2,5.184926093E-3,-5.124282837E-2,5.355453647E-2
2.207460440E1,2.859298512E-2,-1.865725964E-2,-6.141185760E-2,7.026427535E-2
2.209250888E1,2.532452345E-4,1.011851430E-2,-6.081199646E-2,6.164857969E-2
2.211043844E1,1.467652619E-2,-4.703999311E-2,-3.748321533E-2,6.191246081E-2
2.212834292E1,1.006350666E-2,-1.802767068E-2,-4.167175293E-2,4.650597885E-2
2.214626351E1,5.811385810E-3,-6.102002040E-2,-2.731704712E-2,6.710764604E-2
2.216419485E1,9.752884507E-4,-4.662156850E-2,-8.173942566E-3,4.734274151E-2
2.218210787E1,9.568259120E-4,-5.101997778E-2,-8.177757263E-3,5.168006736E-2
2.220001748E1,4.337170720E-2,-6.511270255E-2,-1.834964752E-2,8.035843816E-2
2.221793533E1,2.967992052E-2,-4.082335904E-2,-3.396034241E-3,5.058633585E-2
2.223585348E1,2.970696613E-2,-3.579695895E-2,-3.398895264E-3,4.664202607E-2
2.225377157E1,1.455063373E-2,-2.601892129E-2,-3.211593628E-2,4.381938578E-2
2.227169180E1,2.886359766E-2,-3.996266052E-2,-1.297664642E-2,5.097563004E-2
2.228960635E1,1.949230209E-2,-2.528811619E-2,-2.673721313E-2,4.164513450E-2
2.230752523E1,2.919745818E-2,-3.473171219E-2,-6.083488464E-2,7.589246725E-2
2.232544235E1,1.495242864E-2,3.685846925E-3,-4.109382629E-2,4.388465733E-2
2.234335543E1,-1.361065358E-2,-1.543296129E-2,-6.980800629E-2,7.277763342E-2
2.236127926E1,4.397291690E-2,-5.864322186E-3,-6.023406982E-2,7.480742519E-2
2.237919729E1,8.458048105E-4,-3.929585591E-2,-5.126285553E-2,6.459690422E-2
2.239711776E1,5.875438452E-3,-5.348122120E-2,-6.561946869E-2,8.485679978E-2
2.241502658E1,-8.559808135E-3,-2.000603080E-2,-5.066490173E-2,5.514021991E-2
2.243295767E1,3.935668617E-2,-9.650377184E-2,-4.169178009E-2,1.122503063E-1
2.245088217E1,1.287519932E-3,-1.523315907E-2,-5.544757843E-2,5.751643936E-2
2.246879794E1,3.023351356E-2,-4.845970497E-2,-2.733325958E-2,6.332073458E-2
2.248671426E1,1.582601666E-2,-1.473072171E-2,-4.587936401E-2,5.071856670E-2
2.250462094E1,3.492241353E-2,-4.313739389E-2,-5.126571655E-2,7.555516800E-2
2.252255075E1,1.069737971E-2,9.610734880E-3,-3.631401062E-2,3.905774603E-2
2.254046853E1,2.995147184E-2,-4.297178239E-2,-1.776981354E-2,5.531212362E-2
2.255838674E1,-1.740356535E-2,-4.281216115E-2,-3.212833405E-2,5.628494539E-2
2.257630416E1,7.259762287E-2,-8.571827412E-2,-1.358699799E-2,1.131487688E-1
2.259422250E1,-8.331879973E-3,-4.516378045E-3,-4.588603973E-2,4.685452526E-2
2.261214010E1,3.960945457E-2,-4.291083664E-2,-3.212642670E-2,6.665100213E-2
2.263005838E1,-7.980488241E-3,-1.914913952E-2,-4.588127136E-2,5.035343880E-2
2.264797555E1,5.931774527E-2,-9.984046221E-3,-2.733230591E-2,6.607065180E-2
2.266589108E1,-7.089257240E-3,-4.355236143E-2,-3.211688995E-2,5.457618871E-2
2.268381472E1,1.628064364E-2,-3.888709471E-2,-1.775932312E-2,4.574559050E-2
2.270173013E1,-4.041247815E-2,-3.483134508E-2,-3.399848938E-3,5.345979763E-2
2.271964736E1,2.182641998E-2,-5.340271443E-2,-1.775646210E-2,6.036169699E-2
2.273756546E1,-4.025450349E-2,-1.090183854E-2,-7.586479187E-3,4.238902925E-2
2.275548336E1,6.418247521E-2,-6.290027499E-2,-2.254390717E-2,9.265021570E-2
2.277340170E1,-7.418178022E-3,-1.473817974E-2,-7.589340210E-3,1.816153606E-2
2.279131906E1,7.836215943E-2,-6.227609515E-2,-1.776409149E-2,1.016587576E-1
2.280923709E1,1.125504822E-2,-1.938455552E-2,-1.776409149E-2,2.860070016E-2
2.282715847E1,5.410384759E-2,-6.234435737E-2,-3.690814972E-2,9.042265610E-2
2.284507357E1,2.057869360E-2,-3.854423389E-2,-2.673816681E-2,5.122567872E-2
2.286299337E1,5.877403915E-2,-6.725043803E-2,-2.733707428E-2,9.340409372E-2
2.288090890E1,-8.233018219E-3,4.505008459E-3,-5.066680908E-2,5.152866419E-2
2.289882766E1,6.345503032E-3,-4.822502658E-2,-3.152275085E-2,5.796207742E-2
2.291673342E1,6.411895156E-3,4.060544074E-3,-4.587554932E-2,4.649910153E-2
2.293466226E1,2.090357617E-2,-3.918476775E-2,-6.980228424E-2,8.273309136E-2
2.295258010E1,6.558343768E-3,-1.555486023E-2,-5.544090271E-2,5.795394070E-2
2.297049801E1,-4.131808877E-2,8.005231619E-3,-5.962562561E-2,7.298276113E-2
2.298841635E1,-3.645743430E-2,-3.519580141E-2,-5.543708801E-2,7.510765393E-2
2.300633371E1,-5.498364568E-2,-2.150208503E-2,-3.629493713E-2,6.930269413E-2
2.302425198E1,1.597702503E-2,-4.983434454E-2,-2.672386169E-2,5.876131387E-2
2.304216970E1,1.915678382E-3,-5.940827355E-2,-3.150653839E-2,6.727313543E-2
2.306008792E1,5.927203596E-2,-6.418885291E-2,-1.296329498E-2,8.832570464E-2
2.307800540E1,2.567049116E-2,-4.959094897E-2,-2.253723145E-2,6.021763145E-2
2.309592330E1,7.308076322E-2,-4.935925826E-2,-3.211307526E-2,9.385299106E-2
2.311384103E1,2.094424888E-2,-7.776574045E-2,-8.187294006E-3,8.095186059E-2
2.313175961E1,7.765012980E-2,-5.862912163E-2,-2.733135223E-2,1.010639371E-1
2.314967636E1,-3.225614130E-2,-3.955150023E-2,-4.108810425E-2,6.552108159E-2
2.316758962E1,1.578901708E-2,3.399163485E-3,-4.527378082E-2,4.806831184E-2
2.318551272E1,-2.208288014E-2,-2.562450245E-2,-5.962467194E-2,6.855195274E-2
2.320341458E1,2.600282431E-2,6.039895117E-2,-7.876014709E-2,1.026028311E-1
2.322134835E1,-1.124688238E-2,-6.515248120E-2,-4.106616974E-2,7.783166750E-2
2.323926443E1,3.117135540E-2,3.035373986E-2,-7.455921173E-2,8.632542484E-2
2.325718038E1,-4.459653050E-2,-3.336456046E-2,-2.669906616E-2,6.176475177E-2
2.327510629E1,5.057653785E-2,-1.396965235E-2,-3.626632690E-2,6.378388382E-2
2.329301974E1,-2.052329481E-2,-6.247935444E-2,-1.712226868E-2,6.795621712E-2
2.331093795E1,5.533269420E-2,-2.364079654E-2,-1.772212982E-2,6.272693356E-2
2.332884433E1,-1.461401582E-3,-5.763827264E-2,6.206512451E-3,5.798988674E-2
2.334677389E1,4.585324228E-2,-3.774333373E-2,2.017974854E-3,5.942349107E-2
2.336469113E1,1.293468103E-2,-6.628759950E-2,6.801605225E-3,6.787940523E-2
2.338260940E1,4.578468949E-2,-2.793568000E-2,-7.555961609E-3,5.416394155E-2
2.340052731E1,2.739749849E-2,-7.564527541E-2,2.015113831E-3,8.047913580E-2
2.341844540E1,4.123587906E-2,-4.225082323E-2,-3.148269653E-2,6.690807101E-2
2.343636251E1,-6.534144282E-3,-1.367784292E-2,-2.168655396E-3,1.531278859E-2
2.345428073E1,2.215011790E-2,-3.301718831E-2,-4.523849487E-2,6.022693638E-2
2.347220333E1,3.284975886E-3,-4.461541772E-3,-4.044914246E-2,4.082682387E-2
2.349011654E1,3.215145692E-2,-9.386405349E-3,-6.975936890E-2,7.738339833E-2
2.350803433E1,-5.979165435E-3,-2.884194627E-2,-6.975555420E-2,7.571951945E-2
2.352595217E1,3.613851964E-3,-9.955503047E-3,-6.975364685E-2,7.055312336E-2
2.354386996E1,-2.012133598E-2,-4.372015968E-2,-5.060672760E-2,6.983810853E-2
2.356177633E1,3.981977701E-3,-3.427156806E-2,-6.017589569E-2,6.936522865E-2
2.357970394E1,-3.468617797E-4,-7.714112103E-2,-3.146457672E-2,8.331201867E-2
2.359762509E1,4.684184492E-2,-4.347273335E-2,-4.103755951E-2,7.594812881E-2
2.361554153E1,-9.541660547E-4,-3.831565008E-2,-2.668380737E-2,4.670144590E-2
2.363345956E1,6.582562625E-2,-2.313721180E-2,-2.190113068E-2,7.313004284E-2
2.365137173E1,9.029172361E-3,-4.249496385E-2,1.159477234E-2,4.496428196E-2
2.366929318E1,7.019711286E-2,-2.737328038E-2,-2.669525146E-2,7.993477080E-2
2.368721487E1,3.184109554E-2,-1.845960319E-2,6.804466248E-3,3.742877337E-2
2.370513119E1,4.614252597E-2,-2.806548402E-2,-2.190876007E-2,5.828205439E-2
2.372304843E1,-2.544494718E-2,-1.395443082E-2,-1.652145386E-2,3.339356097E-2
2.374096615E1,4.640005529E-2,-2.368371189E-2,-2.190399170E-2,5.651254898E-2
2.375888424E1,-2.550064772E-2,4.888929427E-3,-3.087615967E-2,4.034255695E-2
2.377680227E1,3.203199431E-2,-6.227276847E-2,-3.566074371E-2,7.858520850E-2
2.379471945E1,-1.564250141E-2,-2.897668257E-2,-5.420207977E-2,6.342082809E-2
2.381263772E1,-1.257635653E-3,-6.726229191E-2,-3.565788269E-2,7.613988546E-2
2.383055569E1,-1.093495637E-2,-2.452080697E-2,-4.462814331E-2,5.208180508E-2
2.384847335E1,1.303784549E-2,-7.707546651E-2,-4.103946686E-2,8.828845221E-2
2.386639108E1,2.261365578E-2,-4.823835939E-2,-4.044246674E-2,6.688729222E-2
2.388430929E1,5.608915165E-2,-3.802614287E-2,-5.479907990E-2,8.714883609E-2
2.390222787E1,1.277375221E-2,-9.676486254E-3,-4.044628143E-2,4.350522743E-2
2.392014425E1,7.024540007E-2,-3.763748333E-2,-4.583072662E-2,9.193177843E-2
2.393806246E1,1.279999316E-2,5.356475711E-3,-5.958938599E-2,6.118354827E-2
2.395598068E1,6.033593416E-2,-2.802905813E-2,-3.087806702E-2,7.334512986E-2
2.397389382E1,2.807177603E-3,-4.810325801E-3,-3.566455841E-2,3.609681713E-2
2.399181881E1,7.493659854E-3,-5.080558360E-3,-2.130508423E-2,2.314894437E-2
2.400973367E1,-2.606916428E-2,4.081562161E-3,-2.070522308E-2,3.354052383E-2
2.402764822E1,1.256703585E-2,8.842326701E-3,-2.070140839E-2,2.578110628E-2
2.404557315E1,1.277874410E-2,-1.542671025E-2,-3.086662292E-2,3.679712082E-2
2.406347665E1,3.174819052E-3,-4.447786137E-2,-1.590919495E-2,4.734408213E-2
2.408140536E1,1.284965128E-2,-5.901898444E-2,-2.607631683E-2,6.579003239E-2
2.409932284E1,-1.218095422E-3,-5.414138362E-2,-2.069091797E-2,5.797315985E-2
2.411724124E1,2.761402726E-2,-5.422376469E-2,-3.085803986E-2,6.822733897E-2
2.413515920E1,9.217105806E-3,-7.794884592E-2,-1.171684265E-2,7.936159034E-2
2.415306466E1,4.678326100E-2,-3.886007890E-2,-3.564834595E-2,7.049527510E-2
2.417099435E1,2.768508345E-2,-2.498714626E-2,-2.069282532E-2,4.264990438E-2
2.418891232E1,4.172616452E-2,-1.468402147E-2,-2.548217773E-2,5.104933569E-2
2.420683041E1,1.786130667E-2,-1.974676549E-2,-3.565406799E-2,4.449914143E-2
2.422474752E1,4.146815091E-2,-9.510919452E-3,-3.087139130E-2,5.256527304E-2
2.424266568E1,1.278891414E-2,-1.496355981E-2,-2.129840851E-2,2.900149396E-2
2.426058377E1,3.669388592E-2,-3.419078141E-2,-1.651287079E-2,5.280270542E-2
2.427850173E1,-1.090316474E-2,-2.948804572E-2,-6.938934326E-3,3.219584836E-2
2.429640719E1,2.261971310E-2,-5.992844701E-3,-1.172065735E-2,2.617134725E-2
2.431433395E1,1.330353320E-2,-3.483630717E-2,-2.128887177E-2,4.293912381E-2
2.433225784E1,2.761055529E-2,-6.366157532E-2,-4.521656036E-2,8.282316262E-2
2.435017282E1,-5.742378533E-3,-3.025555983E-2,-2.607154846E-2,4.034971439E-2
2.436809011E1,2.299431339E-2,-4.482796416E-2,-4.999828339E-2,7.097966723E-2
2.438601412E1,-1.951044053E-2,-4.970920086E-2,-2.128314972E-2,5.748594960E-2
2.440392617E1,2.769815922E-2,-2.571885288E-2,-5.957031250E-2,7.054976647E-2
2.442184432E1,4.186695814E-2,-5.442026630E-2,-3.564357758E-2,7.736195571E-2
2.443976138E1,4.182742536E-2,-6.062828004E-3,-5.418777466E-2,6.872122174E-2
2.445767971E1,-5.949132144E-3,-6.596848369E-3,-3.025817871E-2,3.153518607E-2
2.447559329E1,4.641982913E-2,-3.469200432E-2,-4.521656036E-2,7.350423819E-2
2.449351242E1,3.643964231E-2,-2.984592691E-2,-2.069377899E-2,5.144763720E-2
2.451143576E1,5.067694932E-2,-4.419919103E-2,-2.607822418E-2,7.212347369E-2
2.452935086E1,-1.131527126E-2,-4.024024680E-2,-3.026199341E-2,5.160524267E-2
2.454726480E1,6.042349339E-2,-4.431670159E-2,-1.650524139E-2,7.672933980E-2
2.456519046E1,-2.068552375E-2,-2.126602829E-2,-3.025913239E-2,4.237628989E-2
2.458310421E1,5.102498084E-2,-2.068079263E-2,-3.085708618E-2,6.311421093E-2
2.460102200E1,2.233443037E-2,-4.542234913E-2,-4.999923706E-2,7.114731398E-2
2.461893734E1,-2.061788738E-2,-5.014248192E-2,-5.897140503E-2,8.010613200E-2
2.463686099E1,1.297192276E-2,-2.566204220E-2,-6.375598907E-2,6.994024115E-2
2.465477560E1,3.515757620E-3,-5.011503398E-2,-4.939937592E-2,7.045690544E-2
2.467269308E1,-2.062188834E-2,-1.627151668E-2,-5.897521973E-2,6.456083236E-2
2.469061111E1,4.598920047E-2,-3.463605046E-2,-3.983592987E-2,7.001116954E-2
2.470851370E1,4.104439169E-2,-4.394128919E-2,-3.983974457E-2,7.212963491E-2
2.472644638E1,3.643478453E-2,-1.019939780E-2,-4.462623596E-2,5.850659942E-2
2.474436459E1,2.674227208E-2,-4.254654050E-4,-3.027153015E-2,4.039425299E-2
2.476228244E1,3.622563928E-2,-4.403729364E-2,-1.560211182E-3,5.704396929E-2
2.478020046E1,4.101780802E-2,-4.338442534E-2,-3.565788269E-2,6.954245851E-2
2.479811764E1,7.559746504E-3,-2.482824028E-2,7.412910461E-3,2.699152689E-2
2.481603219E1,2.788037062E-3,-4.880127311E-2,2.628326416E-3,4.895146073E-2
2.483395730E1,-6.790503860E-3,-3.936723247E-2,7.414817810E-3,4.063089291E-2
2.485187155E1,1.212824136E-2,-3.950303420E-2,-1.531696320E-2,4.407032234E-2
2.486978897E1,1.205879450E-2,-3.947127983E-2,-1.531791687E-2,4.402311931E-2
2.488769516E1,4.561953247E-2,-5.802894384E-2,-4.463005066E-2,8.625741410E-2
2.490562496E1,-2.120646834E-2,-1.546949893E-2,-3.445911407E-2,4.331801288E-2
2.492354269E1,3.136140481E-2,-3.871040419E-2,-6.377315521E-2,8.092619125E-2
2.494146023E1,-1.632656157E-2,-4.404332116E-2,-2.967453003E-2,5.556031393E-2
2.495937814E1,2.197233960E-2,-2.436419576E-2,-6.317329407E-2,7.118470922E-2
2.497729611E1,2.679716796E-2,-3.363057226E-2,-2.548789978E-2,4.998736477E-2
2.499521432E1,2.973973751E-3,-2.855956182E-2,-5.360507965E-2,6.081116391E-2
2.501313137E1,3.171344474E-2,-2.816256508E-2,-3.506374359E-2,5.503034403E-2
2.503104898E1,2.701921016E-2,-3.741962835E-2,-3.028011322E-2,5.520101050E-2
2.504896694E1,2.712396532E-2,-8.743941784E-3,-4.403781891E-2,5.245469957E-2
2.506688540E1,4.625925422E-2,-4.691072181E-2,-2.070903778E-2,6.906083309E-2
2.508480246E1,-1.128993183E-2,-1.404615492E-2,-1.532649994E-2,2.365710526E-2
2.510272042E1,3.175744042E-2,-5.161004514E-2,-2.549648285E-2,6.574345913E-2
2.512063815E1,-1.120656729E-2,9.744115174E-3,-5.752563477E-3,1.592566851E-2
2.513855636E1,1.259837300E-2,-2.794079110E-2,-1.532554626E-2,3.426775712E-2
2.515647366E1,2.695237100E-2,-1.366910338E-2,-2.011013031E-2,3.630002798E-2
2.517439181E1,-1.579257846E-2,-5.263463035E-2,-2.967834473E-2,6.245489566E-2
2.519230929E1,8.237987757E-3,-9.062059224E-3,-2.010536194E-2,2.354168512E-2
2.521021951E1,-5.778118968E-3,-4.305147007E-2,-3.027343750E-2,5.294616844E-2
2.522813137E1,-5.745075643E-3,-2.874456719E-2,-1.591587067E-2,3.335522412E-2
2.524606698E1,3.558702767E-3,-3.824006394E-2,-2.548980713E-2,4.609443700E-2
2.526398074E1,1.803852618E-2,-3.277572989E-2,-3.506088257E-2,5.127282305E-2
2.528189877E1,8.181802928E-3,9.697154164E-4,-3.925228119E-2,4.010765296E-2
2.529981582E1,2.709510177E-2,-8.271016181E-3,-5.361366272E-2,6.063809924E-2
2.531773403E1,2.204005048E-2,-6.060928106E-2,-4.943084717E-2,8.125673774E-2
2.533565188E1,5.528761074E-2,1.578859985E-3,-5.840587616E-2,8.043916378E-2
2.535356979E1,3.144588694E-2,-6.053343415E-2,-5.421829224E-2,8.713646578E-2
2.537148684E1,1.701810211E-2,-2.719874308E-2,-6.378841400E-2,7.140272533E-2
2.538940493E1,1.210065931E-2,-4.682978988E-2,-4.464817047E-2,6.582487601E-2
2.540731002E1,2.750761807E-3,-2.724017575E-2,-4.464530945E-2,5.237172445E-2
2.542524392E1,1.226314902E-2,-3.239855915E-2,-3.925800323E-2,5.235687421E-2
2.544314352E1,2.766527236E-3,-5.234279856E-2,-2.968502045E-2,6.023805004E-2
2.546107626E1,-1.169092953E-2,-5.721785128E-2,-2.489948273E-2,6.348657007E-2
2.547899423E1,-6.930612028E-3,-2.850199863E-2,-2.011394501E-2,3.556638993E-2
2.549691507E1,1.656066626E-2,-5.717398971E-2,-1.573562622E-3,5.954491470E-2
2.551482931E1,-3.123626858E-2,-2.842916176E-2,-1.533222198E-2,4.493326990E-2
2.553274734E1,6.383810937E-2,-5.607716739E-2,1.277637482E-2,8.592548321E-2
2.555066470E1,-2.710896730E-2,-2.765751258E-2,8.585929871E-3,3.966802619E-2
2.556858352E1,6.816855073E-2,-3.625601158E-2,3.190994263E-2,8.354456369E-2
2.558650045E1,-3.318049014E-3,-3.609229997E-2,3.668594360E-2,5.157055385E-2
2.560441842E1,5.777911097E-2,-2.537106350E-2,6.060695648E-2,8.749468385E-2
2.562233126E1,2.444938570E-2,-3.018345684E-2,6.059932709E-2,7.197980252E-2
2.564025118E1,3.844726831E-2,-2.483369038E-2,7.494831085E-2,8.781886994E-2
2.565816024E1,-9.373009205E-3,-2.464590594E-2,8.451938629E-2,8.853700153E-2
2.567609274E1,4.317168519E-2,-2.929219604E-2,9.887409210E-2,1.117940662E-1
2.569399337E1,-4.777256399E-2,-1.006757468E-2,1.036596298E-1,1.145813806E-1
2.571191415E1,7.642380148E-2,-1.962366700E-2,1.275863647E-1,1.500132201E-1
2.572983309E1,-7.605145872E-2,-2.993333712E-2,1.898012161E-1,2.066502618E-1
2.574775009E1,5.238832161E-2,-1.970001310E-2,2.466287613E-1,2.528999262E-1
2.576566854E1,-7.143922895E-2,1.295392960E-2,2.956838608E-1,3.044672614E-1
2.578358572E1,1.456634700E-2,-2.515006065E-2,3.471260071E-1,3.483405931E-1
2.580150289E1,-8.574322611E-2,1.246014982E-2,3.764400482E-1,3.862826246E-1
2.581942111E1,1.532100514E-2,-4.407890141E-2,4.236965179E-1,4.262586328E-1
2.583733895E1,-6.573901325E-2,-3.493323177E-2,4.242954254E-1,4.307766899E-1
2.585525595E1,3.478251025E-2,-2.440423518E-2,4.470243454E-1,4.490391465E-1
2.587317337E1,-1.764074713E-2,-4.861444235E-2,4.900941849E-1,4.928152494E-1
2.589109213E1,8.281991631E-2,-1.922921836E-2,4.853067398E-1,4.926982170E-1
2.590902328E1,3.021219373E-2,-3.862656280E-2,5.331611633E-1,5.354116305E-1
2.592693862E1,4.939410463E-2,-1.441530138E-2,5.959711075E-1,5.981882141E-1
2.594483792E1,-3.611259162E-3,-1.887308434E-2,6.103239059E-1,6.106263216E-1
2.596277358E1,2.070441842E-2,-4.437357187E-3,6.725339890E-1,6.728672450E-1
2.598069168E1,-3.640905768E-2,-3.358375654E-2,7.203912735E-1,7.220921514E-1
2.599860940E1,5.433133245E-2,-4.024825990E-3,7.341470718E-1,7.361657531E-1
2.601652676E1,-5.965672433E-2,-4.342431203E-2,7.586746216E-1,7.622544044E-1
2.603444039E1,2.128292620E-2,-2.381713688E-2,7.915782928E-1,7.922224515E-1
2.605236276E1,-4.070665687E-2,-1.900795475E-2,7.730350494E-1,7.743394100E-1
2.607028048E1,4.051694646E-2,-4.297409579E-2,7.676506042E-1,7.699193763E-1
2.608819772E1,-1.712150872E-2,-9.440787137E-3,7.778196335E-1,7.780653294E-1
2.610611575E1,6.402964890E-2,-3.250016272E-2,7.628602982E-1,7.662322696E-1
2.612403360E1,-7.786735892E-3,-1.851116493E-2,7.580728531E-1,7.583388076E-1
2.614195169E1,6.394806504E-2,-7.963553071E-3,7.867832184E-1,7.894178906E-1
2.615986886E1,-1.730959862E-2,1.311294734E-3,7.873792648E-1,7.875705990E-1
2.617778683E1,4.468718916E-2,-2.237692475E-2,8.154916763E-1,8.170216312E-1
2.619570462E1,-3.624904901E-2,1.779265702E-3,8.591585159E-1,8.599247146E-1
2.621362277E1,4.966232181E-2,-3.612530231E-2,8.627424240E-1,8.649253574E-1
2.623153970E1,-5.554224551E-2,-1.257373393E-2,9.207687378E-1,9.225281071E-1
2.624945755E1,4.484435171E-2,-2.140417695E-2,9.010257721E-1,9.023949228E-1
2.626736392E1,-3.185745329E-2,1.991510391E-3,9.111938477E-1,9.117527579E-1
2.628529055E1,2.073251083E-2,2.187061310E-2,9.207639694E-1,9.212569935E-1
2.630321383E1,2.060101554E-2,-6.013923883E-2,9.345216751E-1,9.366813178E-1
2.632112887E1,1.542181522E-2,-2.257011831E-3,9.207611084E-1,9.208930151E-1
2.633904660E1,-1.350758970E-2,-4.113565758E-2,9.159746170E-1,9.169973262E-1
2.635695285E1,1.962210611E-2,-7.433421910E-2,9.111843109E-1,9.144219221E-1
2.637487789E1,-5.219704658E-2,-4.532456398E-2,9.111814499E-1,9.138000232E-1
2.639280343E1,1.465765387E-2,-6.247952580E-3,8.872509003E-1,8.873939620E-1
2.641071731E1,-2.367708087E-2,-1.221336424E-3,8.878469467E-1,8.881634403E-1
2.642863564E1,-4.522524774E-3,-2.478213981E-2,8.824605942E-1,8.828200881E-1
2.644655050E1,2.342867106E-2,4.235078394E-2,8.591279984E-1,8.604902144E-1
2.646446804E1,5.256580561E-2,-4.730150104E-4,8.824548721E-1,8.840192243E-1
2.648239126E1,2.851422504E-2,-1.460295543E-2,8.680953979E-1,8.686863227E-1
2.650030673E1,5.177662522E-2,9.431362152E-3,8.441658020E-1,8.458047474E-1
2.651822409E1,-1.458824426E-2,-1.915849000E-2,8.776655197E-1,8.779958024E-1
2.653614151E1,-4.737749696E-3,-2.358179912E-2,8.824501038E-1,8.827778504E-1
2.655405929E1,-1.416648179E-2,-3.342418373E-2,8.776626587E-1,8.784131191E-1
2.657197756E1,4.917204380E-3,-2.312726900E-2,8.824472427E-1,8.827639468E-1
2.658989468E1,3.442987800E-4,-5.689491332E-2,9.015893936E-1,9.033828559E-1
2.660781246E1,-4.537485540E-3,-1.778324693E-2,8.968009949E-1,8.969887720E-1
2.662573043E1,3.367206454E-2,-7.077223808E-2,9.153432846E-1,9.186924656E-1
2.664364840E1,-9.464651346E-3,-2.295833826E-2,9.063701630E-1,9.067102830E-1
2.666156570E1,-2.370361984E-2,-1.804475114E-2,9.302978516E-1,9.307747135E-1
2.667946743E1,9.504161775E-3,2.097091079E-2,9.015817642E-1,9.018757042E-1
2.669740133E1,-9.937323630E-3,6.661377847E-3,9.159364700E-1,9.160145968E-1
2.671531936E1,9.190253913E-3,3.053898364E-2,9.021778107E-1,9.027413208E-1
2.673323648E1,-1.500941068E-2,-3.592357039E-3,9.302911758E-1,9.304191847E-1
2.675115475E1,4.227418453E-2,-3.644086793E-2,9.350757599E-1,9.367399427E-1
2.676906399E1,1.369255036E-2,-2.737804875E-2,9.398612976E-1,9.403596664E-1
2.678698727E1,2.320406586E-2,-5.093196034E-2,9.542169571E-1,9.558569425E-1
2.680491030E1,1.821058616E-2,-3.093878180E-2,9.494266510E-1,9.501051517E-1
2.682282571E1,-5.545400083E-3,-2.178252488E-2,9.494266510E-1,9.496926848E-1
2.684074337E1,-1.024682820E-2,1.718925685E-2,9.404525757E-1,9.406654640E-1
2.685864993E1,-3.387867659E-2,7.306672633E-3,9.213113785E-1,9.219630189E-1
2.687657852E1,3.781297430E-2,8.129790425E-3,9.207105637E-1,9.215225752E-1
2.689449655E1,-5.772784352E-4,1.778873801E-2,9.021654129E-1,9.023409581E-1
2.691241403E1,-1.505785435E-2,-5.940385163E-3,9.069490433E-1,9.070934871E-1
2.693033200E1,-1.018673182E-2,-4.475115985E-2,9.063501358E-1,9.075114349E-1
2.694824942E1,2.309481055E-2,-3.919467330E-2,9.057493210E-1,9.068910768E-1
2.696616775E1,8.668810129E-3,-3.955972940E-2,8.967742920E-1,8.976882818E-1
2.698408517E1,-6.802231073E-4,-1.496791840E-2,8.967752457E-1,8.969004084E-1
2.700200314E1,2.324356139E-2,-2.906432003E-2,8.824167252E-1,8.832011519E-1
2.701991763E1,8.810438216E-3,-4.988759756E-3,8.734416962E-1,8.735003767E-1
2.703784084E1,8.647300303E-3,-1.939119026E-2,8.728437424E-1,8.731019372E-1
2.705575613E1,-5.736343563E-3,-1.733154058E-4,8.590841293E-1,8.591032982E-1
2.707367379E1,-5.881540477E-3,1.432447881E-2,8.351535797E-1,8.352971237E-1
2.709159097E1,-1.090732962E-2,-1.417823881E-2,8.303651810E-1,8.305578403E-1
2.710950918E1,-2.525417507E-2,-1.396767050E-2,8.303632736E-1,8.308646312E-1
2.712742703E1,2.672417834E-2,-2.335347608E-2,8.058357239E-1,8.066168734E-1
2.714534500E1,2.211955190E-2,-1.866224781E-2,7.920789719E-1,7.926075017E-1
2.716326180E1,2.542834729E-3,-1.839465275E-2,7.968597412E-1,7.970760794E-1
2.718116629E1,2.067009732E-2,-3.228919581E-2,7.824935913E-1,7.834322342E-1
2.719909689E1,-8.497681469E-3,-1.772039011E-2,7.639446259E-1,7.641973660E-1
2.721701687E1,-3.640174866E-3,-7.994960994E-3,7.633457184E-1,7.633962641E-1
2.723493276E1,-2.749751881E-2,-7.855404168E-3,7.346315384E-1,7.351879475E-1
2.725285104E1,1.122646034E-3,-2.697768807E-2,7.442026138E-1,7.446922763E-1
2.727076870E1,2.478257194E-2,-1.664805785E-2,7.154855728E-1,7.161081892E-1
2.728868661E1,-8.693169802E-3,-1.708470657E-2,7.106990814E-1,7.109575534E-1
2.730660391E1,5.308075249E-2,-3.081573173E-2,7.011241913E-1,7.038055891E-1
2.732452188E1,-4.380274564E-3,-1.151925325E-2,6.724090576E-1,6.725219853E-1
2.734243972E1,-1.400762424E-2,-2.092920244E-3,6.682224274E-1,6.683725056E-1
2.736035763E1,-1.390870288E-2,-2.070263028E-3,6.395092010E-1,6.396637837E-1
2.737827487E1,-2.813720331E-2,2.840012312E-3,6.347227097E-1,6.353524109E-1
2.739619259E1,-1.850830391E-2,-1.158392429E-2,6.251525879E-1,6.255337743E-1
2.741411538E1,4.868049175E-3,7.551051676E-3,6.203670502E-1,6.204321020E-1
2.743202835E1,4.294959456E-2,-6.670128554E-3,6.149816513E-1,6.165156849E-1
2.744994577E1,1.888436079E-2,-2.096381038E-2,5.862665176E-1,5.869450827E-1
2.746786392E1,2.362281829E-2,-3.038622066E-2,5.958356857E-1,5.970774860E-1
2.748578146E1,1.370625943E-2,-3.013882414E-2,5.862607956E-1,5.871949682E-1
2.750369930E1,-1.512572542E-2,-1.079826802E-2,5.725002289E-1,5.728018001E-1
2.752161251E1,-2.484329790E-2,-2.020807564E-2,5.485696793E-1,5.495036385E-1
2.753953842E1,-1.528124139E-2,-1.520709321E-2,5.102844238E-1,5.107396257E-1
2.755745217E1,-7.957406342E-4,-1.054057479E-2,4.959287643E-1,4.960414058E-1
2.757537033E1,-1.515480876E-2,-4.765167832E-4,4.576435089E-1,4.578946129E-1
2.759328140E1,1.288087294E-2,-1.484837011E-2,4.289302826E-1,4.293804587E-1
2.761120126E1,1.773535833E-2,-2.905636281E-2,4.193582535E-1,4.207376379E-1
2.762912704E1,-1.289475709E-3,-2.424852178E-2,4.097871780E-1,4.105060107E-1
2.764704104E1,1.325508580E-2,-1.939332485E-2,3.715028763E-1,3.722447924E-1
2.766495816E1,3.520362079E-3,-2.383668348E-2,3.619279861E-1,3.627291656E-1
2.768287618E1,-1.514926553E-3,-2.844213694E-2,3.475694656E-1,3.487345460E-1
2.770079367E1,-1.115674525E-2,-9.169757366E-3,3.338088989E-1,3.341211433E-1
2.771871194E1,-6.392646581E-3,5.200691521E-4,3.194503784E-1,3.195147581E-1
2.773662905E1,2.205681428E-2,-8.969862014E-3,3.140649796E-1,3.149663043E-1
2.775454684E1,-1.612517238E-2,6.102733314E-4,2.907352448E-1,2.911827195E-1
2.777246481E1,1.261830702E-2,-1.293636486E-2,2.715911865E-1,2.721917409E-1
2.779038278E1,2.138406038E-2,-3.191359341E-3,2.524471283E-1,2.533712995E-1
2.780829977E1,-2.674825490E-3,-3.185067326E-3,2.476606369E-1,2.476955599E-1
2.782621554E1,1.649491489E-2,-2.714551240E-2,2.279195786E-1,2.301223487E-1
2.784413272E1,-2.622447908E-3,-1.746301726E-2,2.093744278E-1,2.101177889E-1
2.786205642E1,2.228021622E-3,-2.712767944E-2,1.998043060E-1,2.016497850E-1
2.787997091E1,-7.313605398E-3,-2.205240726E-2,1.950168610E-1,1.963959611E-1
2.789788864E1,-7.176283747E-3,-2.659009025E-2,1.806592941E-1,1.827465800E-1
2.791580606E1,-2.580739558E-3,-1.697130129E-2,1.519441605E-1,1.529108014E-1
2.793372433E1,-1.698986441E-2,-1.681795716E-2,1.423721313E-1,1.443652415E-1
2.795164163E1,1.150443777E-2,-7.284812629E-3,1.327991486E-1,1.334954473E-1
2.796955923E1,6.666049361E-3,2.228882164E-3,1.088705063E-1,1.090971643E-1
2.798747750E1,-1.735795289E-2,-2.553835511E-3,1.088695526E-1,1.102742041E-1
2.800539181E1,1.155984029E-2,-7.357470691E-3,9.032726288E-2,9.136069561E-2
2.802331198E1,1.555733755E-2,-6.853826344E-3,6.639957428E-2,6.854129523E-2
2.804123092E1,6.143640727E-3,-1.690958068E-2,6.639957428E-2,6.879376211E-2
2.805914816E1,1.086749136E-2,-3.112748638E-2,5.144214630E-2,6.110087719E-2
2.807706613E1,2.040451020E-2,-1.129465550E-2,4.665565491E-2,5.215997905E-2
2.809498312E1,-3.448352218E-3,-6.974484771E-3,3.289794922E-2,3.380546751E-2
2.811290103E1,1.083894819E-2,-1.573687792E-2,4.186916351E-2,4.602346117E-2
2.813081887E1,-8.308686316E-3,-1.162493229E-2,3.708362579E-2,3.974127100E-2
2.814873696E1,-8.098997176E-3,-2.260778099E-3,4.246997833E-2,4.329438685E-2
2.816665402E1,1.535277814E-3,-2.133859321E-2,3.230094910E-2,3.874330847E-2
2.818457199E1,-1.277479157E-2,-2.610109001E-2,3.289890289E-2,4.389533017E-2
2.820248940E1,6.471417844E-3,-2.531353384E-2,2.272796631E-2,3.462967942E-2
2.822040774E1,6.575930864E-3,-1.075220108E-2,-5.387306213E-3,1.370677800E-2
2.823831265E1,6.464798003E-3,-2.016304433E-2,-2.931785583E-2,3.616460481E-2
2.825623971E1,1.096685976E-2,-1.517538726E-2,-4.846382141E-2,5.195484941E-2
2.827416336E1,-1.779156178E-2,4.116807133E-3,-6.282043457E-2,6.542090470E-2
2.829207827E1,1.097518578E-2,-5.432981998E-3,-5.803489685E-2,5.931290963E-2
2.830999557E1,-3.518495709E-3,4.120185971E-3,-5.325126648E-2,5.352619103E-2
2.832791354E1,-1.320137456E-2,-5.573853850E-4,-3.889560699E-2,4.107864667E-2
2.834583218E1,2.970315330E-2,-1.021578163E-2,-4.368114471E-2,5.380224822E-2
2.836374807E1,-3.932211548E-3,-1.485428214E-2,-4.428100586E-2,4.687130749E-2
2.838166641E1,1.507724822E-2,-1.947365329E-2,-4.906845093E-2,5.490227193E-2
2.839957571E1,5.772389472E-3,-2.428270876E-2,-5.863857269E-2,6.372952716E-2
2.841748800E1,5.457293242E-3,-2.889000066E-2,-5.864143372E-2,6.559902389E-2
2.843541702E1,5.296356976E-3,-1.916706190E-2,-7.240200043E-2,7.508313609E-2
2.845333999E1,-1.368718222E-2,-9.503625333E-3,-5.804443359E-2,6.038885760E-2
